Folder: Battery_Analysis1 (part 10)

File: charging_cycle_216.csv
control/mA,Ewe/V
-0.08,-6.36687
-0.08,-6.400707
-0.08,-6.43296
-0.08,-6.46515
-0.08,-6.497628
-0.08,-6.52862
-0.08,-6.560353
-0.08,-6.59115
-0.08,-6.621265
-0.08,-6.64447
0.08,-5.38585
0.08,-4.366718
0.08,-3.35817
0.08,-2.357779
0.08,-1.35761
0.08,-0.3575184
0.08,0.5425624
0.08,0.9362008
0.08,1.10016
0.08,1.16619
0.08,1.22029
0.08,1.28883
0.08,1.3769
0.08,1.47912
0.08,1.61364
0.08,1.79218
0.08,1.993021
0.08,2.184268
0.08,2.3462
0.08,2.48501
0.08,2.623779
0.08,2.77923
0.08,2.95496
0.08,3.14594
0.08,3.34339
0.08,3.55313
0.08,3.75376
0.08,3.94327
0.08,4.11565
0.08,4.281599
0.08,4.445768
0.08,4.60669
0.08,4.761396
0.08,4.90469
0.08,5.021379
0.08,5.12811
0.08,5.218694
0.08,5.29661
0.08,5.369887
0.08,5.43349
0.08,5.494287
0.08,5.545772
0.08,5.594338
0.08,5.635232
0.08,5.67227
0.08,5.70479
0.08,5.734615
0.08,5.75799
0.08,5.784707
0.08,5.80883
0.08,5.82974
0.08,5.8485
0.08,5.8639
0.08,5.88077
0.08,5.89512
0.08,5.907008
0.08,5.91819
0.08,5.927789
0.08,5.93659
0.08,5.9451
0.08,5.95315
0.08,5.960974
0.08,5.96273
0.08,5.96865
0.08,5.97479
0.08,5.98069

File: charging_cycle_217.csv
control/mA,Ewe/V
-0.08,-6.430247
-0.08,-6.466008
-0.08,-6.502704
-0.08,-6.539629
-0.08,-6.575295
-0.08,-6.610655
-0.08,-6.64126
-0.08,-6.675555
-0.08,-6.7034
-0.08,-6.72658
0.08,-5.41494
0.08,-4.3392
0.08,-3.33882
0.08,-2.33881
0.08,-1.33869
0.08,-0.338627
0.08,0.5832086
0.08,0.959348
0.08,1.11632
0.08,1.17416
0.08,1.22916
0.08,1.29747
0.08,1.38266
0.08,1.48416
0.08,1.62077
0.08,1.80011
0.08,2.003116
0.08,2.19526
0.08,2.3592
0.08,2.50493
0.08,2.65107
0.08,2.80827
0.08,2.98574
0.08,3.17746
0.08,3.38247
0.08,3.58759
0.08,3.797729
0.08,3.98961
0.08,4.167743
0.08,4.334611
0.08,4.501127
0.08,4.66365
0.08,4.82403
0.08,4.96768
0.08,5.088474
0.08,5.193085
0.08,5.283194
0.08,5.35851
0.08,5.433585
0.08,5.49686
0.08,5.556649
0.08,5.60976
0.08,5.655441
0.08,5.69481
0.08,5.73177
0.08,5.764384
0.08,5.79085
0.08,5.82251
0.08,5.845829
0.08,5.868041
0.08,5.887353
0.08,5.903898
0.08,5.9188
0.08,5.9342
0.08,5.94897
0.08,5.961871
0.08,5.97185
0.08,5.983835
0.08,5.992499
0.08,6.00256
0.08,6.011734
0.08,6.020016
0.08,6.02851
0.08,6.035225
0.08,6.043068
0.08,6.04759

File: charging_cycle_218.csv
control/mA,Ewe/V
-0.08,-6.550277
-0.08,-6.59115
-0.08,-6.634642
-0.08,-6.67634
-0.08,-6.714408
-0.08,-6.74988
-0.08,-6.78421
-0.08,-6.81927
-0.08,-6.851937
-0.08,-6.88182
0.08,-5.5387
0.08,-4.45915
0.08,-3.44885
0.08,-2.448403
0.08,-1.44815
0.08,-0.448066
0.08,0.5519702
0.08,0.952593
0.08,1.11739
0.08,1.17306
0.08,1.222308
0.08,1.28576
0.08,1.36436
0.08,1.45912
0.08,1.58698
0.08,1.75819
0.08,1.96173
0.08,2.158831
0.08,2.33368
0.08,2.483063
0.08,2.63225
0.08,2.78686
0.08,2.96036
0.08,3.15304
0.08,3.35636
0.08,3.57816
0.08,3.778875
0.08,3.98474
0.08,4.162667
0.08,4.33387
0.08,4.50286
0.08,4.663578
0.08,4.82353
0.08,4.968711
0.08,5.092176
0.08,5.2002
0.08,5.294262
0.08,5.37483
0.08,5.444691
0.08,5.511748
0.08,5.568347
0.08,5.61676
0.08,5.659391
0.08,5.6984
0.08,5.73223
0.08,5.76335
0.08,5.793752
0.08,5.81982
0.08,5.842451
0.08,5.8651
0.08,5.88518
0.08,5.90413
0.08,5.920213
0.08,5.93657
0.08,5.95069
0.08,5.962348
0.08,5.974809
0.08,5.987251
0.08,5.99744
0.08,6.00744
0.08,6.016314
0.08,6.023909
0.08,6.03179
0.08,6.03904
0.08,6.04564
0.08,6.04847

File: charging_cycle_219.csv
control/mA,Ewe/V
-0.08,-6.564379
-0.08,-6.606533
-0.08,-6.64953
-0.08,-6.68851
-0.08,-6.72754
-0.08,-6.764519
-0.08,-6.738185
-0.08,-6.75845
-0.08,-6.781636
-0.08,-6.80887
0.08,-5.597054
0.08,-4.59291
0.08,-3.57407
0.08,-2.57378
0.08,-1.57347
0.08,-0.573344
0.08,0.4274936
0.08,0.8581334
0.08,1.07772
0.08,1.1489
0.08,1.20321
0.08,1.26532
0.08,1.34072
0.08,1.43535
0.08,1.55498
0.08,1.71081
0.08,1.89599
0.08,2.08013
0.08,2.2467
0.08,2.387573
0.08,2.526667
0.08,2.67519
0.08,2.83741
0.08,3.02064
0.08,3.21418
0.08,3.425425
0.08,3.63055
0.08,3.8278
0.08,4.008555
0.08,4.175128
0.08,4.3366
0.08,4.49054
0.08,4.63553
0.08,4.783265
0.08,4.907856
0.08,5.00585
0.08,5.099351
0.08,5.17849
0.08,5.2502
0.08,5.31428
0.08,5.37576
0.08,5.43282
0.08,5.48404
0.08,5.52642
0.08,5.56283
0.08,5.59266
0.08,5.619317
0.08,5.641682
0.08,5.65743
0.08,5.67784
0.08,5.69389
0.08,5.70872
0.08,5.72275
0.08,5.73608
0.08,5.74824
0.08,5.758678
0.08,5.769231
0.08,5.77875
0.08,5.78877
0.08,5.799038
0.08,5.807816
0.08,5.816594
0.08,5.82428
0.08,5.83281
0.08,5.841001
0.08,5.84505

File: charging_cycle_220.csv
control/mA,Ewe/V
-0.08,-6.503219
-0.08,-6.553636
-0.08,-6.600713
-0.08,-6.644546
-0.08,-6.686986
-0.08,-6.72658
-0.08,-6.764958
-0.08,-6.80408
-0.08,-6.842968
-0.08,-6.871058
0.08,-5.728748
0.08,-4.697498
0.08,-3.694829
0.08,-2.693463
0.08,-1.69344
0.08,-0.6934125
0.08,0.306605
0.08,0.749839
0.08,1.0153
0.08,1.11146
0.08,1.17147
0.08,1.23603
0.08,1.3135
0.08,1.40888
0.08,1.52298
0.08,1.68077
0.08,1.86681
0.08,2.054811
0.08,2.219817
0.08,2.35263
0.08,2.48135
0.08,2.616814
0.08,2.77228
0.08,2.9441
0.08,3.12512
0.08,3.32459
0.08,3.53009
0.08,3.7184
0.08,3.90412
0.08,4.06893
0.08,4.223187
0.08,4.375429
0.08,4.530991
0.08,4.68096
0.08,4.818396
0.08,4.93566
0.08,5.03579
0.08,5.121392
0.08,5.19673
0.08,5.26442
0.08,5.327256
0.08,5.3842
0.08,5.43717
0.08,5.48398
0.08,5.52398
0.08,5.557852
0.08,5.586457
0.08,5.61052
0.08,5.63212
0.08,5.65176
0.08,5.667768
0.08,5.68363
0.08,5.69744
0.08,5.710857
0.08,5.723585
0.08,5.73544
0.08,5.745778
0.08,5.755472
0.08,5.765128
0.08,5.77377
0.08,5.782245
0.08,5.7899
0.08,5.7969
0.08,5.804572
0.08,5.81129
0.08,5.81591

File: charging_cycle_221.csv
control/mA,Ewe/V
-0.08,-6.564017
-0.08,-6.61676
-0.08,-6.67265
-0.08,-6.72061
-0.08,-6.765645
-0.08,-6.80877
-0.08,-6.85159
-0.08,-6.894167
-0.08,-6.936359
-0.08,-6.962579
0.08,-5.80257
0.08,-4.72605
0.08,-3.72355
0.08,-2.72317
0.08,-1.72314
0.08,-0.723067
0.08,0.276988
0.08,0.7072654
0.08,0.9689277
0.08,1.08171
0.08,1.15063
0.08,1.21635
0.08,1.29171
0.08,1.386
0.08,1.49746
0.08,1.64333
0.08,1.83
0.08,2.0235
0.08,2.19591
0.08,2.339847
0.08,2.469953
0.08,2.60494
0.08,2.753904
0.08,2.92198
0.08,3.09999
0.08,3.2928
0.08,3.49769
0.08,3.69436
0.08,3.87719
0.08,4.045633
0.08,4.205154
0.08,4.360602
0.08,4.513607
0.08,4.662338
0.08,4.80027
0.08,4.921424
0.08,5.02485
0.08,5.11254
0.08,5.189994
0.08,5.254513
0.08,5.32256
0.08,5.38063
0.08,5.434005
0.08,5.478964
0.08,5.521461
0.08,5.555848
0.08,5.58732
0.08,5.613936
0.08,5.63489
0.08,5.65536
0.08,5.67157
0.08,5.68905
0.08,5.70412
0.08,5.71742
0.08,5.729501
0.08,5.74007
0.08,5.751484
0.08,5.762571
0.08,5.77146
0.08,5.779841
0.08,5.78728
0.08,5.79425
0.08,5.801309
0.08,5.807339
0.08,5.813503
0.08,5.817835

File: charging_cycle_222.csv
control/mA,Ewe/V
-0.08,-6.637218
-0.08,-6.69613
-0.08,-6.74702
-0.08,-6.793868
-0.08,-6.840411
-0.08,-6.885809
-0.08,-6.93262
-0.08,-6.97847
-0.08,-7.02238
-0.08,-7.05374
0.08,-5.896431
0.08,-4.783313
0.08,-3.75664
0.08,-2.75539
0.08,-1.75533
0.08,-0.7553168
0.08,0.244757
0.08,0.6746912
0.08,0.9330712
0.08,1.04915
0.08,1.12325
0.08,1.19178
0.08,1.26799
0.08,1.36285
0.08,1.47231
0.08,1.61784
0.08,1.7992
0.08,1.99344
0.08,2.1707
0.08,2.31899
0.08,2.44986
0.08,2.58191
0.08,2.72965
0.08,2.89617
0.08,3.07446
0.08,3.26427
0.08,3.46598
0.08,3.661
0.08,3.8441
0.08,4.01329
0.08,4.17087
0.08,4.325394
0.08,4.4796
0.08,4.62694
0.08,4.765518
0.08,4.88601
0.08,4.985217
0.08,5.0697
0.08,5.145512
0.08,5.214878
0.08,5.277164
0.08,5.33563
0.08,5.39042
0.08,5.438298
0.08,5.481635
0.08,5.51911
0.08,5.55201
0.08,5.578022
0.08,5.60119
0.08,5.62224
0.08,5.640709
0.08,5.65767
0.08,5.67231
0.08,5.68626
0.08,5.69897
0.08,5.71042
0.08,5.72042
0.08,5.730169
0.08,5.739195
0.08,5.74788
0.08,5.756102
0.08,5.76402
0.08,5.769956
0.08,5.777532
0.08,5.78257
0.08,5.787016

File: charging_cycle_223.csv
control/mA,Ewe/V
-0.08,-6.621532
-0.08,-6.681223
-0.08,-6.73231
-0.08,-6.77809
-0.08,-6.82574
-0.08,-6.87564
-0.08,-6.92403
-0.08,-6.97783
-0.08,-7.027651
-0.08,-7.05767
0.08,-5.92753
0.08,-4.831287
0.08,-3.80391
0.08,-2.80223
0.08,-1.80215
0.08,-0.802108
0.08,0.197961
0.08,0.628034
0.08,0.8861277
0.08,1.01595
0.08,1.09602
0.08,1.17428
0.08,1.25595
0.08,1.34535
0.08,1.45121
0.08,1.58915
0.08,1.77031
0.08,1.96898
0.08,2.14864
0.08,2.29405
0.08,2.423544
0.08,2.55623
0.08,2.70437
0.08,2.871034
0.08,3.04929
0.08,3.237155
0.08,3.437657
0.08,3.63003
0.08,3.8158
0.08,3.98497
0.08,4.13967
0.08,4.29118
0.08,4.44705
0.08,4.59061
0.08,4.73212
0.08,4.854539
0.08,4.956059
0.08,5.04201
0.08,5.11679
0.08,5.184956
0.08,5.246746
0.08,5.30428
0.08,5.3587
0.08,5.406621
0.08,5.456026
0.08,5.497302
0.08,5.53156
0.08,5.56012
0.08,5.582907
0.08,5.605215
0.08,5.62359
0.08,5.639793
0.08,5.65517
0.08,5.66708
0.08,5.679313
0.08,5.688988
0.08,5.69878
0.08,5.707021
0.08,5.715437
0.08,5.722364
0.08,5.730226
0.08,5.734042
0.08,5.743355
0.08,5.74948
0.08,5.755129
0.08,5.75797

File: charging_cycle_224.csv
control/mA,Ewe/V
-0.08,-6.63323
-0.08,-6.695134
-0.08,-6.75326
-0.08,-6.807
-0.08,-6.85999
-0.08,-6.911647
-0.08,-6.962693
-0.08,-7.01362
-0.08,-7.063717
-0.08,-7.09499
0.08,-5.979151
0.08,-4.877085
0.08,-3.86181
0.08,-2.85918
0.08,-1.85915
0.08,-0.8591459
0.08,0.140941
0.08,0.575919
0.08,0.847428
0.08,0.9847663
0.08,1.07089
0.08,1.150786
0.08,1.23162
0.08,1.32104
0.08,1.42455
0.08,1.5545
0.08,1.72642
0.08,1.92732
0.08,2.10601
0.08,2.25543
0.08,2.38315
0.08,2.508691
0.08,2.65093
0.08,2.81193
0.08,2.987324
0.08,3.171167
0.08,3.36505
0.08,3.56414
0.08,3.74989
0.08,3.92308
0.08,4.07983
0.08,4.22979
0.08,4.386783
0.08,4.54095
0.08,4.68169
0.08,4.803149
0.08,4.906883
0.08,4.9938
0.08,5.06857
0.08,5.136715
0.08,5.198581
0.08,5.25802
0.08,5.31443
0.08,5.365765
0.08,5.41252
0.08,5.45708
0.08,5.497073
0.08,5.529552
0.08,5.555657
0.08,5.57995
0.08,5.600005
0.08,5.619298
0.08,5.63634
0.08,5.65191
0.08,5.665192
0.08,5.676813
0.08,5.687099
0.08,5.696583
0.08,5.70549
0.08,5.71372
0.08,5.721467
0.08,5.72878
0.08,5.73547
0.08,5.7421
0.08,5.747858
0.08,5.752419

File: charging_cycle_225.csv
control/mA,Ewe/V
-0.08,-6.65985
-0.08,-6.717175
-0.08,-6.7748
-0.08,-6.831595
-0.08,-6.889721
-0.08,-6.94529
-0.08,-7.00185
-0.08,-7.05793
-0.08,-7.111939
-0.08,-7.14383
0.08,-6.034858
0.08,-4.911339
0.08,-3.90682
0.08,-2.906407
0.08,-1.90638
0.08,-0.9063566
0.08,0.09373069
0.08,0.535387
0.08,0.814358
0.08,0.9566193
0.08,1.04304
0.08,1.12006
0.08,1.19989
0.08,1.29137
0.08,1.39899
0.08,1.52235
0.08,1.6873
0.08,1.88709
0.08,2.079962
0.08,2.23527
0.08,2.362632
0.08,2.486727
0.08,2.622386
0.08,2.78268
0.08,2.95828
0.08,3.14426
0.08,3.341213
0.08,3.53881
0.08,3.726455
0.08,3.89675
0.08,4.05542
0.08,4.20878
0.08,4.367605
0.08,4.52187
0.08,4.664742
0.08,4.78933
0.08,4.89408
0.08,4.97993
0.08,5.0547
0.08,5.12481
0.08,5.18717
0.08,5.24566
0.08,5.29964
0.08,5.35025
0.08,5.397595
0.08,5.439577
0.08,5.478029
0.08,5.511824
0.08,5.538273
0.08,5.562966
0.08,5.584262
0.08,5.60281
0.08,5.6192
0.08,5.63361
0.08,5.64659
0.08,5.658
0.08,5.66832
0.08,5.677481
0.08,5.686183
0.08,5.69418
0.08,5.70143
0.08,5.70887
0.08,5.71563
0.08,5.72185
0.08,5.72754
0.08,5.732554

File: charging_cycle_226.csv
control/mA,Ewe/V
-0.08,-6.635081
-0.08,-6.691184
-0.08,-6.74439
-0.08,-6.79835
-0.08,-6.85211
-0.08,-6.903384
-0.08,-6.955976
-0.08,-7.008148
-0.08,-7.05908
-0.08,-7.08875
0.08,-5.9951
0.08,-4.90134
0.08,-3.89322
0.08,-2.89156
0.08,-1.89147
0.08,-0.891434
0.08,0.108634
0.08,0.529338
0.08,0.8027553
0.08,0.944864
0.08,1.03461
0.08,1.12161
0.08,1.209141
0.08,1.30291
0.08,1.40842
0.08,1.533967
0.08,1.70157
0.08,1.90457
0.08,2.092404
0.08,2.24001
0.08,2.36557
0.08,2.49049
0.08,2.63284
0.08,2.79705
0.08,2.97826
0.08,3.165003
0.08,3.36005
0.08,3.5504
0.08,3.73718
0.08,3.90648
0.08,4.062483
0.08,4.21803
0.08,4.37486
0.08,4.52614
0.08,4.67157
0.08,4.792253
0.08,4.89118
0.08,4.975886
0.08,5.04632
0.08,5.11406
0.08,5.1753
0.08,5.232491
0.08,5.286743
0.08,5.336435
0.08,5.38384
0.08,5.42675
0.08,5.46484
0.08,5.49963
0.08,5.528369
0.08,5.552356
0.08,5.57424
0.08,5.59199
0.08,5.609413
0.08,5.625519
0.08,5.639545
0.08,5.651796
0.08,5.663341
0.08,5.67355
0.08,5.68237
0.08,5.69092
0.08,5.698243
0.08,5.705399
0.08,5.71191
0.08,5.718433
0.08,5.724749
0.08,5.728661

File: charging_cycle_227.csv
control/mA,Ewe/V
-0.08,-6.58745
-0.08,-6.64611
-0.08,-6.708034
-0.08,-6.76154
-0.08,-6.812493
-0.08,-6.86339
-0.08,-6.91691
-0.08,-6.966872
-0.08,-7.01929
-0.08,-7.048775
0.08,-5.957349
0.08,-4.887008
0.08,-3.86975
0.08,-2.868738
0.08,-1.868708
0.08,-0.8686873
0.08,0.128213
0.08,0.5450432
0.08,0.8099686
0.08,0.941773
0.08,1.02549
0.08,1.113403
0.08,1.203607
0.08,1.3002
0.08,1.41136
0.08,1.54416
0.08,1.7121
0.08,1.91408
0.08,2.09895
0.08,2.2469
0.08,2.37049
0.08,2.49676
0.08,2.64321
0.08,2.81485
0.08,2.99738
0.08,3.187597
0.08,3.37936
0.08,3.57822
0.08,3.76008
0.08,3.9268
0.08,4.0822
0.08,4.239159
0.08,4.40037
0.08,4.55473
0.08,4.69779
0.08,4.814675
0.08,4.911825
0.08,4.99144
0.08,5.06491
0.08,5.12906
0.08,5.188162
0.08,5.244876
0.08,5.29804
0.08,5.34651
0.08,5.39361
0.08,5.43607
0.08,5.47446
0.08,5.507569
0.08,5.53543
0.08,5.559054
0.08,5.579224
0.08,5.598574
0.08,5.61596
0.08,5.63174
0.08,5.64481
0.08,5.65765
0.08,5.67023
0.08,5.680649
0.08,5.69103
0.08,5.699331
0.08,5.70563
0.08,5.715112
0.08,5.7213
0.08,5.728184
0.08,5.734176
0.08,5.73773

File: charging_cycle_228.csv
control/mA,Ewe/V
-0.08,-6.57716
-0.08,-6.636474
-0.08,-6.69582
-0.08,-6.750264
-0.08,-6.80154
-0.08,-6.85348
-0.08,-6.901991
-0.08,-6.951759
-0.08,-7.0
-0.08,-7.02811
0.08,-5.93731
0.08,-4.874681
0.08,-3.863812
0.08,-2.860933
0.08,-1.86081
0.08,-0.8608061
0.08,0.109054
0.08,0.535139
0.08,0.7967061
0.08,0.9263732
0.08,1.01778
0.08,1.10411
0.08,1.19609
0.08,1.29778
0.08,1.40491
0.08,1.5329
0.08,1.711589
0.08,1.91852
0.08,2.103281
0.08,2.246151
0.08,2.37109
0.08,2.496192
0.08,2.64172
0.08,2.813652
0.08,2.99339
0.08,3.18153
0.08,3.378386
0.08,3.5745
0.08,3.757827
0.08,3.9235
0.08,4.07981
0.08,4.23847
0.08,4.39886
0.08,4.55708
0.08,4.700064
0.08,4.819255
0.08,4.91648
0.08,4.99745
0.08,5.069124
0.08,5.13275
0.08,5.19202
0.08,5.24841
0.08,5.301513
0.08,5.35138
0.08,5.39811
0.08,5.441256
0.08,5.479536
0.08,5.51381
0.08,5.54232
0.08,5.566859
0.08,5.58962
0.08,5.6076
0.08,5.625729
0.08,5.64107
0.08,5.65536
0.08,5.66716
0.08,5.678874
0.08,5.689465
0.08,5.69956
0.08,5.708452
0.08,5.715704
0.08,5.7246
0.08,5.730989
0.08,5.738031
0.08,5.744099
0.08,5.74748

File: charging_cycle_229.csv
control/mA,Ewe/V
-0.08,-6.55516
-0.08,-6.6131
-0.08,-6.67302
-0.08,-6.72889
-0.08,-6.782
-0.08,-6.82879
-0.08,-6.874932
-0.08,-6.92176
-0.08,-6.96834
-0.08,-6.99695
0.08,-5.89972
0.08,-4.857735
0.08,-3.83855
0.08,-2.83727
0.08,-1.83718
0.08,-0.8371817
0.08,0.131743
0.08,0.548077
0.08,0.8060757
0.08,0.9351703
0.08,1.0273
0.08,1.117334
0.08,1.21063
0.08,1.309039
0.08,1.42041
0.08,1.55408
0.08,1.73384
0.08,1.940677
0.08,2.12439
0.08,2.26687
0.08,2.38671
0.08,2.51987
0.08,2.671772
0.08,2.847066
0.08,3.03085
0.08,3.219408
0.08,3.41627
0.08,3.60988
0.08,3.78952
0.08,3.953902
0.08,4.11223
0.08,4.270684
0.08,4.43327
0.08,4.586083
0.08,4.7234
0.08,4.834044
0.08,4.93146
0.08,5.011666
0.08,5.081375
0.08,5.14446
0.08,5.20434
0.08,5.25932
0.08,5.310921
0.08,5.360002
0.08,5.407537
0.08,5.45173
0.08,5.490318
0.08,5.52486
0.08,5.55478
0.08,5.57907
0.08,5.60052
0.08,5.620176
0.08,5.635881
0.08,5.64983
0.08,5.66376
0.08,5.67704
0.08,5.68836
0.08,5.69969
0.08,5.709273
0.08,5.71862
0.08,5.72673
0.08,5.7291
0.08,5.73872
0.08,5.7466
0.08,5.75085
0.08,5.754556

File: charging_cycle_230.csv
control/mA,Ewe/V
-0.08,-6.498773
-0.08,-6.55198
-0.08,-6.6052
-0.08,-6.65777
-0.08,-6.706202
-0.08,-6.752707
-0.08,-6.79738
-0.08,-6.84312
-0.08,-6.88829
-0.08,-6.914414
0.08,-5.81788
0.08,-4.70364
0.08,-3.68933
0.08,-2.68865
0.08,-1.68856
0.08,-0.6885273
0.08,0.142907
0.08,0.555997
0.08,0.8014004
0.08,0.929407
0.08,1.02286
0.08,1.11856
0.08,1.21681
0.08,1.31898
0.08,1.43249
0.08,1.56862
0.08,1.74823
0.08,1.95459
0.08,2.13498
0.08,2.27573
0.08,2.39963
0.08,2.53226
0.08,2.68507
0.08,2.860672
0.08,3.04679
0.08,3.238109
0.08,3.4347
0.08,3.629152
0.08,3.80899
0.08,3.97442
0.08,4.132879
0.08,4.291026
0.08,4.45107
0.08,4.60616
0.08,4.742771
0.08,4.85534
0.08,4.948216
0.08,5.027753
0.08,5.097519
0.08,5.161828
0.08,5.221404
0.08,5.278118
0.08,5.330996
0.08,5.37981
0.08,5.42599
0.08,5.46851
0.08,5.50499
0.08,5.541059
0.08,5.570542
0.08,5.595101
0.08,5.617848
0.08,5.63758
0.08,5.655765
0.08,5.67227
0.08,5.68653
0.08,5.699751
0.08,5.710647
0.08,5.721467
0.08,5.732821
0.08,5.74166
0.08,5.75051
0.08,5.757877
0.08,5.76436
0.08,5.770548
0.08,5.7761
0.08,5.77887

File: charging_cycle_231.csv
control/mA,Ewe/V
-0.08,-6.49383
-0.08,-6.54814
-0.08,-6.60359
-0.08,-6.658076
-0.08,-6.70557
-0.08,-6.75192
-0.08,-6.79417
-0.08,-6.838159
-0.08,-6.881496
-0.08,-6.905884
0.08,-5.80385
0.08,-4.702574
0.08,-3.68794
0.08,-2.68734
0.08,-1.6873
0.08,-0.687211
0.08,0.13661
0.08,0.5601185
0.08,0.8078122
0.08,0.9363725
0.08,1.02791
0.08,1.12121
0.08,1.21702
0.08,1.31889
0.08,1.43554
0.08,1.575014
0.08,1.76092
0.08,1.96558
0.08,2.14727
0.08,2.289087
0.08,2.417571
0.08,2.55529
0.08,2.70902
0.08,2.88731
0.08,3.070582
0.08,3.26358
0.08,3.46327
0.08,3.65759
0.08,3.83286
0.08,3.99861
0.08,4.160072
0.08,4.3123
0.08,4.48147
0.08,4.632588
0.08,4.76449
0.08,4.87267
0.08,4.963654
0.08,5.041282
0.08,5.111526
0.08,5.17167
0.08,5.22957
0.08,5.287659
0.08,5.34147
0.08,5.38664
0.08,5.43513
0.08,5.47717
0.08,5.517186
0.08,5.55199
0.08,5.582201
0.08,5.60712
0.08,5.63021
0.08,5.65056
0.08,5.66878
0.08,5.68473
0.08,5.69925
0.08,5.71194
0.08,5.721715
0.08,5.73297
0.08,5.743698
0.08,5.75301
0.08,5.76034
0.08,5.76753
0.08,5.77341
0.08,5.77902
0.08,5.784402
0.08,5.786997

File: charging_cycle_232.csv
control/mA,Ewe/V
-0.08,-6.4304
-0.08,-6.48208
-0.08,-6.535412
-0.08,-6.58814
-0.08,-6.642447
-0.08,-6.694772
-0.08,-6.744196
-0.08,-6.789193
-0.08,-6.83364
-0.08,-6.858654
0.08,-5.758004
0.08,-4.69528
0.08,-3.69107
0.08,-2.69104
0.08,-1.691
0.08,-0.6909126
0.08,0.127164
0.08,0.548497
0.08,0.796687
0.08,0.9152861
0.08,1.00551
0.08,1.09817
0.08,1.19475
0.08,1.29845
0.08,1.416074
0.08,1.55397
0.08,1.74334
0.08,1.95434
0.08,2.13782
0.08,2.28111
0.08,2.40875
0.08,2.54543
0.08,2.70488
0.08,2.88372
0.08,3.0677
0.08,3.259749
0.08,3.459545
0.08,3.65253
0.08,3.837879
0.08,4.003097
0.08,4.16788
0.08,4.327989
0.08,4.489467
0.08,4.64406
0.08,4.7763
0.08,4.88566
0.08,4.97757
0.08,5.052522
0.08,5.124063
0.08,5.188277
0.08,5.247261
0.08,5.303326
0.08,5.35828
0.08,5.408148
0.08,5.45376
0.08,5.496711
0.08,5.53543
0.08,5.56892
0.08,5.59754
0.08,5.62287
0.08,5.6454
0.08,5.6655
0.08,5.683187
0.08,5.69929
0.08,5.71303
0.08,5.726238
0.08,5.737935
0.08,5.74835
0.08,5.75738
0.08,5.76583
0.08,5.77328
0.08,5.779841
0.08,5.78547
0.08,5.790718
0.08,5.795546
0.08,5.79799

File: charging_cycle_233.csv
control/mA,Ewe/V
-0.08,-6.454062
-0.08,-6.509345
-0.08,-6.570314
-0.08,-6.63174
-0.08,-6.687673
-0.08,-6.73443
-0.08,-6.77564
-0.08,-6.81795
-0.08,-6.861364
-0.08,-6.887221
0.08,-5.775
0.08,-4.69397
0.08,-3.6921
0.08,-2.69167
0.08,-1.69165
0.08,-0.6915996
0.08,0.143842
0.08,0.56592
0.08,0.8101594
0.08,0.9249229
0.08,1.01265
0.08,1.10178
0.08,1.196012
0.08,1.3024
0.08,1.41888
0.08,1.56084
0.08,1.74842
0.08,1.9661
0.08,2.148259
0.08,2.29243
0.08,2.42337
0.08,2.55936
0.08,2.72066
0.08,2.89743
0.08,3.08211
0.08,3.27189
0.08,3.468323
0.08,3.66453
0.08,3.84568
0.08,4.01615
0.08,4.18213
0.08,4.34648
0.08,4.50828
0.08,4.654552
0.08,4.78752
0.08,4.89568
0.08,4.987908
0.08,5.065632
0.08,5.135265
0.08,5.200146
0.08,5.260867
0.08,5.31791
0.08,5.37162
0.08,5.42214
0.08,5.46887
0.08,5.51102
0.08,5.549112
0.08,5.584033
0.08,5.61489
0.08,5.64088
0.08,5.66368
0.08,5.68437
0.08,5.70225
0.08,5.71761
0.08,5.73139
0.08,5.74334
0.08,5.75532
0.08,5.7652
0.08,5.77417
0.08,5.78293
0.08,5.790756
0.08,5.797015
0.08,5.80305
0.08,5.80957
0.08,5.814724
0.08,5.816785

File: charging_cycle_234.csv
control/mA,Ewe/V
-0.08,-6.446372
-0.08,-6.504078
-0.08,-6.56539
-0.08,-6.62896
-0.08,-6.685478
-0.08,-6.73599
-0.08,-6.782266
-0.08,-6.826118
-0.08,-6.87209
-0.08,-6.89774
0.08,-5.763535
0.08,-4.6817
0.08,-3.67905
0.08,-2.67814
0.08,-1.67812
0.08,-0.6780509
0.08,0.193094
0.08,0.5977306
0.08,0.8234792
0.08,0.9327087
0.08,1.0195
0.08,1.11056
0.08,1.2051
0.08,1.3099
0.08,1.42796
0.08,1.57104
0.08,1.76183
0.08,1.97539
0.08,2.16263
0.08,2.30998
0.08,2.44284
0.08,2.58704
0.08,2.7494
0.08,2.91847
0.08,3.10463
0.08,3.28996
0.08,3.48922
0.08,3.68478
0.08,3.86958
0.08,4.04277
0.08,4.2121
0.08,4.37854
0.08,4.536449
0.08,4.68262
0.08,4.80643
0.08,4.91644
0.08,5.01043
0.08,5.092233
0.08,5.164786
0.08,5.23095
0.08,5.29258
0.08,5.34964
0.08,5.40185
0.08,5.4515
0.08,5.49667
0.08,5.53791
0.08,5.575637
0.08,5.60831
0.08,5.63575
0.08,5.661967
0.08,5.682042
0.08,5.70311
0.08,5.721047
0.08,5.736237
0.08,5.749118
0.08,5.76099
0.08,5.770834
0.08,5.7806
0.08,5.789153
0.08,5.797645
0.08,5.80535
0.08,5.812
0.08,5.818846
0.08,5.82362
0.08,5.82959
0.08,5.832032

File: charging_cycle_235.csv
control/mA,Ewe/V
-0.08,-6.40101
-0.08,-6.45647
-0.08,-6.5132
-0.08,-6.57331
-0.08,-6.631188
-0.08,-6.68233
-0.08,-6.72238
-0.08,-6.7607
-0.08,-6.80152
-0.08,-6.82743
0.08,-5.69548
0.08,-4.65874
0.08,-3.64113
0.08,-2.641
0.08,-1.641
0.08,-0.640973
0.08,0.230674
0.08,0.617538
0.08,0.8378484
0.08,0.9449216
0.08,1.03097
0.08,1.12054
0.08,1.21611
0.08,1.31854
0.08,1.43712
0.08,1.58736
0.08,1.775478
0.08,1.98369
0.08,2.16566
0.08,2.31389
0.08,2.452149
0.08,2.59714
0.08,2.76476
0.08,2.94393
0.08,3.128059
0.08,3.324153
0.08,3.52586
0.08,3.72018
0.08,3.906386
0.08,4.08403
0.08,4.25357
0.08,4.422296
0.08,4.57832
0.08,4.71638
0.08,4.83189
0.08,4.935755
0.08,5.018822
0.08,5.10134
0.08,5.174442
0.08,5.238693
0.08,5.29873
0.08,5.356033
0.08,5.40719
0.08,5.45627
0.08,5.501405
0.08,5.54211
0.08,5.57814
0.08,5.612676
0.08,5.64058
0.08,5.665631
0.08,5.68658
0.08,5.70322
0.08,5.720131
0.08,5.734405
0.08,5.7475
0.08,5.757858
0.08,5.767838
0.08,5.77671
0.08,5.78602
0.08,5.79387
0.08,5.80137
0.08,5.808236
0.08,5.81501
0.08,5.82096
0.08,5.82661
0.08,5.82879

File: charging_cycle_236.csv
control/mA,Ewe/V
-0.08,-6.41809
-0.08,-6.47444
-0.08,-6.535183
-0.08,-6.591496
-0.08,-6.6459
-0.08,-6.68899
-0.08,-6.73238
-0.08,-6.77847
-0.08,-6.821538
-0.08,-6.84703
0.08,-5.704541
0.08,-4.678625
0.08,-3.66935
0.08,-2.669228
0.08,-1.66923
0.08,-0.669158
0.08,0.2017259
0.08,0.598398
0.08,0.822162
0.08,0.9287585
0.08,1.01331
0.08,1.099797
0.08,1.19672
0.08,1.299803
0.08,1.41754
0.08,1.55902
0.08,1.74495
0.08,1.959359
0.08,2.15603
0.08,2.3051
0.08,2.44026
0.08,2.58783
0.08,2.75261
0.08,2.92952
0.08,3.1002
0.08,3.29738
0.08,3.49758
0.08,3.69142
0.08,3.8754
0.08,4.05277
0.08,4.222882
0.08,4.39257
0.08,4.551219
0.08,4.69499
0.08,4.821411
0.08,4.92452
0.08,5.02197
0.08,5.102824
0.08,5.17643
0.08,5.225297
0.08,5.301208
0.08,5.35926
0.08,5.41313
0.08,5.463125
0.08,5.509439
0.08,5.55253
0.08,5.59102
0.08,5.62512
0.08,5.65502
0.08,5.6792
0.08,5.701411
0.08,5.71998
0.08,5.735111
0.08,5.749614
0.08,5.76127
0.08,5.771521
0.08,5.78179
0.08,5.79112
0.08,5.79961
0.08,5.80721
0.08,5.814724
0.08,5.82104
0.08,5.826689
0.08,5.83207
0.08,5.8378
0.08,5.84152

File: charging_cycle_237.csv
control/mA,Ewe/V
-0.08,-6.403035
-0.08,-6.46055
-0.08,-6.515909
-0.08,-6.57636
-0.08,-6.63037
-0.08,-6.676719
-0.08,-6.721621
-0.08,-6.76647
-0.08,-6.814993
-0.08,-6.840277
0.08,-5.689392
0.08,-4.673148
0.08,-3.66685
0.08,-2.66673
0.08,-1.66671
0.08,-0.666658
0.08,0.227182
0.08,0.6224236
0.08,0.836303
0.08,0.939769
0.08,1.02198
0.08,1.10894
0.08,1.20344
0.08,1.309268
0.08,1.42701
0.08,1.5723
0.08,1.76204
0.08,1.97655
0.08,2.16734
0.08,2.318818
0.08,2.45805
0.08,2.60676
0.08,2.77423
0.08,2.95198
0.08,3.13605
0.08,3.33009
0.08,3.529006
0.08,3.72083
0.08,3.90929
0.08,4.08878
0.08,4.262383
0.08,4.42846
0.08,4.58477
0.08,4.718899
0.08,4.83836
0.08,4.947624
0.08,5.041034
0.08,5.123529
0.08,5.196654
0.08,5.26068
0.08,5.3243
0.08,5.37874
0.08,5.432879
0.08,5.4833
0.08,5.529342
0.08,5.57188
0.08,5.60882
0.08,5.642159
0.08,5.66882
0.08,5.693358
0.08,5.713013
0.08,5.730245
0.08,5.744042
0.08,5.75738
0.08,5.76795
0.08,5.778448
0.08,5.787703
0.08,5.796729
0.08,5.805145
0.08,5.81253
0.08,5.82012
0.08,5.827643
0.08,5.83457
0.08,5.840104
0.08,5.846096
0.08,5.84825

File: charging_cycle_238.csv
control/mA,Ewe/V
-0.08,-6.37662
-0.08,-6.438472
-0.08,-6.49912
-0.08,-6.555029
-0.08,-6.60461
-0.08,-6.661682
-0.08,-6.714713
-0.08,-6.76488
-0.08,-6.815222
-0.08,-6.842415
0.08,-5.68691
0.08,-4.653951
0.08,-3.65077
0.08,-2.65072
0.08,-1.650678
0.08,-0.650629
0.08,0.299506
0.08,0.6692144
0.08,0.8632857
0.08,0.9545393
0.08,1.03648
0.08,1.124013
0.08,1.21435
0.08,1.31931
0.08,1.439145
0.08,1.58633
0.08,1.77844
0.08,1.9939
0.08,2.18032
0.08,2.33073
0.08,2.4714
0.08,2.62229
0.08,2.7923
0.08,2.97322
0.08,3.165423
0.08,3.36631
0.08,3.56782
0.08,3.764296
0.08,3.9514
0.08,4.13261
0.08,4.30385
0.08,4.464736
0.08,4.61251
0.08,4.745786
0.08,4.868107
0.08,4.97255
0.08,5.06224
0.08,5.146142
0.08,5.22213
0.08,5.290598
0.08,5.353934
0.08,5.41317
0.08,5.4665
0.08,5.51518
0.08,5.56012
0.08,5.59869
0.08,5.633114
0.08,5.66162
0.08,5.685496
0.08,5.70622
0.08,5.72368
0.08,5.73906
0.08,5.751961
0.08,5.762762
0.08,5.77328
0.08,5.78209
0.08,5.79079
0.08,5.79889
0.08,5.80535
0.08,5.81249
0.08,5.819247
0.08,5.82547
0.08,5.83123
0.08,5.83673
0.08,5.84133
0.08,5.84325