Folder: Battery_Analysis1 (part 12)

File: charging_cycle_263.csv
control/mA,Ewe/V
-0.08,-5.43607
-0.08,-5.45256
-0.08,-5.468186
-0.08,-5.483681
-0.08,-5.49755
-0.08,-5.51055
-0.08,-5.523736
-0.08,-5.53541
-0.08,-5.54698
-0.08,-5.552818
0.08,-4.892255
0.08,-3.88674
0.08,-2.88627
0.08,-1.886245
0.08,-0.8861861
0.08,-0.00431634
0.08,0.4738455
0.08,0.7279892
0.08,0.89315
0.08,1.007
0.08,1.08405
0.08,1.15233
0.08,1.2166
0.08,1.29246
0.08,1.39073
0.08,1.52036
0.08,1.68026
0.08,1.86717
0.08,2.02266
0.08,2.123356
0.08,2.21144
0.08,2.30991
0.08,2.43078
0.08,2.58348
0.08,2.75797
0.08,2.93603
0.08,3.11199
0.08,3.28627
0.08,3.45393
0.08,3.60639
0.08,3.738687
0.08,3.85832
0.08,3.97171
0.08,4.09095
0.08,4.21491
0.08,4.339191
0.08,4.459355
0.08,4.57072
0.08,4.66793
0.08,4.753591
0.08,4.825915
0.08,4.89116
0.08,4.949
0.08,5.001
0.08,5.049774
0.08,5.09435
0.08,5.135341
0.08,5.165072
0.08,5.19517
0.08,5.218599
0.08,5.23574
0.08,5.249933
0.08,5.259951
0.08,5.268023
0.08,5.273214
0.08,5.278996
0.08,5.283824
0.08,5.288499
0.08,5.29253
0.08,5.29602
0.08,5.29802
0.08,5.300674
0.08,5.30314
0.08,5.305406
0.08,5.306322

File: charging_cycle_264.csv
control/mA,Ewe/V
-0.08,-5.438703
-0.08,-5.45393
-0.08,-5.46924
-0.08,-5.48078
-0.08,-5.49505
-0.08,-5.50675
-0.08,-5.519557
-0.08,-5.530949
-0.08,-5.54139
-0.08,-5.548124
0.08,-4.892255
0.08,-3.88688
0.08,-2.88683
0.08,-1.8868
0.08,-0.8867777
0.08,-0.0289521
0.08,0.466804
0.08,0.728714
0.08,0.9009741
0.08,1.0316
0.08,1.10993
0.08,1.16867
0.08,1.23187
0.08,1.30247
0.08,1.39129
0.08,1.51647
0.08,1.67821
0.08,1.863144
0.08,2.02084
0.08,2.121963
0.08,2.20892
0.08,2.30584
0.08,2.42415
0.08,2.57508
0.08,2.75425
0.08,2.93277
0.08,3.10629
0.08,3.27944
0.08,3.44741
0.08,3.59927
0.08,3.73365
0.08,3.84998
0.08,3.963195
0.08,4.0795
0.08,4.20138
0.08,4.326
0.08,4.44657
0.08,4.558108
0.08,4.65837
0.08,4.74596
0.08,4.82191
0.08,4.885892
0.08,4.945888
0.08,4.99814
0.08,5.04598
0.08,5.090707
0.08,5.131639
0.08,5.162324
0.08,5.190376
0.08,5.21427
0.08,5.231671
0.08,5.24573
0.08,5.25612
0.08,5.263596
0.08,5.268634
0.08,5.27409
0.08,5.27879
0.08,5.283
0.08,5.286438
0.08,5.29003
0.08,5.29319
0.08,5.29558
0.08,5.298193
0.08,5.30086
0.08,5.301819

File: charging_cycle_265.csv
control/mA,Ewe/V
-0.08,-5.416243
-0.08,-5.43071
-0.08,-5.44437
-0.08,-5.456584
-0.08,-5.468262
-0.08,-5.48078
-0.08,-5.49099
-0.08,-5.50191
-0.08,-5.51238
-0.08,-5.51727
0.08,-4.881835
0.08,-3.87947
0.08,-2.87918
0.08,-1.87915
0.08,-0.8791446
0.08,-0.0329404
0.08,0.464571
0.08,0.7276648
0.08,0.900955
0.08,1.02001
0.08,1.104
0.08,1.17239
0.08,1.23364
0.08,1.31244
0.08,1.40548
0.08,1.53137
0.08,1.69777
0.08,1.88335
0.08,2.03163
0.08,2.12656
0.08,2.21102
0.08,2.30693
0.08,2.424002
0.08,2.57544
0.08,2.75396
0.08,2.93149
0.08,3.105484
0.08,3.27996
0.08,3.44905
0.08,3.60133
0.08,3.735233
0.08,3.851504
0.08,3.96402
0.08,4.08092
0.08,4.203398
0.08,4.32839
0.08,4.449661
0.08,4.561753
0.08,4.6619
0.08,4.74779
0.08,4.82269
0.08,4.888582
0.08,4.94675
0.08,4.998766
0.08,5.0354
0.08,5.090344
0.08,5.1291
0.08,5.16108
0.08,5.18809
0.08,5.209611
0.08,5.226671
0.08,5.23995
0.08,5.25014
0.08,5.25743
0.08,5.26279
0.08,5.267184
0.08,5.271897
0.08,5.2761
0.08,5.27999
0.08,5.282736
0.08,5.2863
0.08,5.289396
0.08,5.292182
0.08,5.29461
0.08,5.295407

File: charging_cycle_266.csv
control/mA,Ewe/V
-0.08,-5.41214
-0.08,-5.42748
-0.08,-5.44103
-0.08,-5.45513
-0.08,-5.466793
-0.08,-5.479483
-0.08,-5.490551
-0.08,-5.501657
-0.08,-5.512019
-0.08,-5.51782
0.08,-4.881995
0.08,-3.876611
0.08,-2.87628
0.08,-1.87623
0.08,-0.876015
0.08,-0.0204031
0.08,0.479914
0.08,0.740698
0.08,0.909619
0.08,1.02528
0.08,1.104186
0.08,1.17279
0.08,1.24288
0.08,1.32314
0.08,1.423001
0.08,1.55591
0.08,1.72437
0.08,1.90866
0.08,2.04527
0.08,2.13803
0.08,2.223729
0.08,2.32168
0.08,2.44215
0.08,2.59729
0.08,2.77482
0.08,2.9508
0.08,3.12373
0.08,3.29188
0.08,3.463056
0.08,3.61452
0.08,3.74655
0.08,3.85973
0.08,3.97174
0.08,4.0883
0.08,4.207902
0.08,4.331596
0.08,4.453344
0.08,4.56563
0.08,4.665677
0.08,4.7505
0.08,4.825724
0.08,4.88908
0.08,4.94833
0.08,5.00052
0.08,5.048305
0.08,5.09212
0.08,5.131067
0.08,5.161809
0.08,5.188639
0.08,5.21072
0.08,5.22722
0.08,5.24112
0.08,5.250047
0.08,5.257566
0.08,5.26339
0.08,5.268939
0.08,5.272889
0.08,5.278061
0.08,5.28234
0.08,5.28636
0.08,5.289892
0.08,5.293327
0.08,5.29688
0.08,5.29924
0.08,5.30058

File: charging_cycle_267.csv
control/mA,Ewe/V
-0.08,-5.40508
-0.08,-5.41874
-0.08,-5.43111
-0.08,-5.443283
-0.08,-5.45462
-0.08,-5.4654
-0.08,-5.47473
-0.08,-5.485189
-0.08,-5.49498
-0.08,-5.499577
0.08,-4.866525
0.08,-3.86547
0.08,-2.86505
0.08,-1.86499
0.08,-0.8649661
0.08,-0.009926658
0.08,0.490638
0.08,0.760544
0.08,0.9406089
0.08,1.05621
0.08,1.13138
0.08,1.19139
0.08,1.26532
0.08,1.33846
0.08,1.44924
0.08,1.5803
0.08,1.75239
0.08,1.93089
0.08,2.05891
0.08,2.14517
0.08,2.23224
0.08,2.328741
0.08,2.45203
0.08,2.61552
0.08,2.79686
0.08,2.971924
0.08,3.143478
0.08,3.314669
0.08,3.4775
0.08,3.62324
0.08,3.74903
0.08,3.85998
0.08,3.970275
0.08,4.084695
0.08,4.202368
0.08,4.32461
0.08,4.44382
0.08,4.555436
0.08,4.653846
0.08,4.73874
0.08,4.81347
0.08,4.8791
0.08,4.93728
0.08,4.98968
0.08,5.03716
0.08,5.08178
0.08,5.12309
0.08,5.15551
0.08,5.185166
0.08,5.20944
0.08,5.22841
0.08,5.24354
0.08,5.25438
0.08,5.262127
0.08,5.268653
0.08,5.2735
0.08,5.27827
0.08,5.28272
0.08,5.286705
0.08,5.29045
0.08,5.293785
0.08,5.2968
0.08,5.29955
0.08,5.302429
0.08,5.303231

File: charging_cycle_268.csv
control/mA,Ewe/V
-0.08,-5.41508
-0.08,-5.428265
-0.08,-5.43968
-0.08,-5.452729
-0.08,-5.46305
-0.08,-5.47271
-0.08,-5.48319
-0.08,-5.49229
-0.08,-5.500703
-0.08,-5.505913
0.08,-4.862598
0.08,-3.86154
0.08,-2.86099
0.08,-1.8609
0.08,-0.8608633
0.08,0.008335506
0.08,0.503252
0.08,0.768254
0.08,0.9356665
0.08,1.04692
0.08,1.12699
0.08,1.19258
0.08,1.26204
0.08,1.342949
0.08,1.44838
0.08,1.5866
0.08,1.76178
0.08,1.94051
0.08,2.06569
0.08,2.15385
0.08,2.23886
0.08,2.33781
0.08,2.464591
0.08,2.62851
0.08,2.80957
0.08,2.98353
0.08,3.152981
0.08,3.323428
0.08,3.487024
0.08,3.63175
0.08,3.75615
0.08,3.86738
0.08,3.97697
0.08,4.090744
0.08,4.20922
0.08,4.330966
0.08,4.4496
0.08,4.56122
0.08,4.660506
0.08,4.74657
0.08,4.81945
0.08,4.88562
0.08,4.94421
0.08,4.996686
0.08,5.043305
0.08,5.087386
0.08,5.128853
0.08,5.162286
0.08,5.19144
0.08,5.214782
0.08,5.233846
0.08,5.24829
0.08,5.259722
0.08,5.268023
0.08,5.274397
0.08,5.28006
0.08,5.28453
0.08,5.28842
0.08,5.29232
0.08,5.29531
0.08,5.29892
0.08,5.30195
0.08,5.304891
0.08,5.307887
0.08,5.308765

File: charging_cycle_269.csv
control/mA,Ewe/V
-0.08,-5.41294
-0.08,-5.42609
-0.08,-5.437234
-0.08,-5.449523
-0.08,-5.45958
-0.08,-5.46998
-0.08,-5.4796
-0.08,-5.488719
-0.08,-5.497249
-0.08,-5.50154
0.08,-4.86308
0.08,-3.8607
0.08,-2.86059
0.08,-1.86048
0.08,-0.8604817
0.08,0.01152232
0.08,0.5042061
0.08,0.7759441
0.08,0.942021
0.08,1.056193
0.08,1.139699
0.08,1.20399
0.08,1.27467
0.08,1.35764
0.08,1.464754
0.08,1.61347
0.08,1.7874
0.08,1.9609
0.08,2.07893
0.08,2.164
0.08,2.25037
0.08,2.35376
0.08,2.483292
0.08,2.64996
0.08,2.78556

File: charging_cycle_270.csv
control/mA,Ewe/V
0.08,2.07893
0.08,2.164
0.08,2.25037
0.08,2.35376
0.08,2.483292
0.08,2.64996
0.08,2.78556
0.0,2.78554
0.0,0.176954
0.0,0.177011
0.16,0.176763
0.16,1.17702
0.16,2.17723
0.16,3.17725
0.16,4.026092
0.16,4.50258
0.16,4.939533
0.16,5.28361
0.16,5.467781
0.16,5.56007
0.16,5.617676
0.16,5.66023
0.16,5.692881
0.16,5.72141
0.16,5.74332
0.16,5.762609
0.16,5.77854
0.16,5.792588
0.16,5.803847
0.16,5.814247
0.16,5.821422
0.16,5.827376
0.16,5.83232
0.16,5.835582
0.16,5.83755
0.16,5.839398
0.16,5.84014
0.16,5.83972
0.16,5.838616
0.16,5.83883
0.16,5.83789
0.16,5.838024

File: charging_cycle_271.csv
control/mA,Ewe/V
-0.16,-8.377851
-0.16,-8.530208
-0.16,-8.68615
-0.16,-8.844442
-0.16,-9.00926
-0.16,-9.175318
-0.16,-9.348455
-0.16,-9.53031
-0.16,-9.718546
-0.16,-9.850389
0.16,-8.158392
0.16,-6.720288
0.16,-5.64803
0.16,-4.51295
0.16,-3.47356
0.16,-2.4601
0.16,-1.44289
0.16,-0.442608
0.16,0.17363
0.16,0.2333269
0.16,0.27113
0.16,0.426444
0.16,0.684233
0.16,1.00438
0.16,1.25675
0.16,1.400388
0.16,1.5507
0.16,1.73863
0.16,1.95383
0.16,2.1948
0.16,2.41433
0.16,2.5863
0.16,2.76478
0.16,2.98834
0.16,3.24719
0.16,3.52112
0.16,3.79576
0.16,4.04258
0.16,4.265608
0.16,4.47798
0.16,4.69619
0.16,4.88473
0.16,5.0172
0.16,5.111736
0.16,5.18847
0.16,5.25407
0.16,5.315444
0.16,5.37143
0.16,5.421773
0.16,5.473716
0.16,5.52205
0.16,5.562985
0.16,5.60188
0.16,5.634125
0.16,5.664276
0.16,5.690362
0.16,5.71355
0.16,5.73171
0.16,5.748946
0.16,5.761388
0.16,5.773238
0.16,5.78299
0.16,5.790947
0.16,5.797416
0.16,5.803408
0.16,5.8089
0.16,5.8128
0.16,5.815392
0.16,5.819056
0.16,5.821804
0.16,5.823884
0.16,5.82589
0.16,5.82709
0.16,5.82753
0.16,5.828597
0.16,5.82965
0.16,5.8297
0.16,5.83005

File: charging_cycle_272.csv
control/mA,Ewe/V
-0.16,-0.00233174
-0.16,-0.00231265
-0.16,-0.00221724
-0.16,-0.00227449
-0.16,-0.00235082
-0.16,-0.0022554
-0.16,-0.00235082
-0.16,-0.0022554
-0.16,-0.00217907
-0.16,-0.00215999
0.16,0.00278295
0.16,0.0020443
0.16,0.00206338
0.16,0.00212063
0.16,0.0020443
0.16,0.0020443
0.16,0.00221605
0.16,0.00212063
0.16,0.00233054
0.16,0.00227329
0.16,0.00231146
0.16,0.00212063
0.16,0.002158798
0.16,0.00223513
0.16,0.00217788
0.16,0.00225421
0.16,0.00233054
0.16,0.00225421
0.16,0.00225421
0.16,0.00231146
0.16,0.00233054
0.16,0.00227329
0.16,0.00227329
0.16,0.00231146
0.16,0.00227329
0.16,0.002368708
0.16,0.00221605