Folder: Battery_Analysis1 (part 8)

File: charging_cycle_167.csv
control/mA,Ewe/V
-0.04,-3.82701
-0.04,-3.91213
-0.04,-3.9978
-0.04,-4.071054
-0.04,-4.13116
-0.04,-4.183165
-0.04,-4.229775
-0.04,-4.26933
-0.04,-4.303224
-0.04,-4.33139
0.04,-3.64681
0.04,-2.646176
0.04,-1.64617
0.04,-0.646164
0.04,0.353853
0.04,0.773158
0.04,0.8756322
0.04,0.9530699
0.04,1.03343
0.04,1.117792
0.04,1.19926
0.04,1.28383
0.04,1.375237
0.04,1.48187
0.04,1.60041
0.04,1.72979
0.04,1.86372
0.04,1.97062
0.04,2.04848
0.04,2.10427
0.04,2.14898
0.04,2.18969
0.04,2.22888
0.04,2.26687
0.04,2.30416
0.04,2.34137
0.04,2.38068
0.04,2.42072
0.04,2.46545
0.04,2.51409
0.04,2.56701
0.04,2.62561
0.04,2.6904
0.04,2.76089
0.04,2.83615
0.04,2.91542
0.04,2.998602
0.04,3.08547
0.04,3.17542
0.04,3.27215
0.04,3.37092
0.04,3.471338
0.04,3.569
0.04,3.67898
0.04,3.794294
0.04,3.91852
0.04,4.043839
0.04,4.16204
0.04,4.25807
0.04,4.340622
0.04,4.411209
0.04,4.468667
0.04,4.51792
0.04,4.561409
0.04,4.601464
0.04,4.639171
0.04,4.67577
0.04,4.71031
0.04,4.74342
0.04,4.77458
0.04,4.80595
0.04,4.83433
0.04,4.859348
0.04,4.876522

File: charging_cycle_168.csv
control/mA,Ewe/V
-0.04,-3.83512
-0.04,-3.9198
-0.04,-4.00249
-0.04,-4.075557
-0.04,-4.136145
-0.04,-4.18925
-0.04,-4.23292
-0.04,-4.272119
-0.04,-4.30693
-0.04,-4.33652
0.04,-3.6586
0.04,-2.65833
0.04,-1.65825
0.04,-0.658205
0.04,0.34185
0.04,0.753904
0.04,0.8606714
0.04,0.9407425
0.04,1.023199
0.04,1.10848
0.04,1.19055
0.04,1.27593
0.04,1.37129
0.04,1.47781
0.04,1.59913
0.04,1.731187
0.04,1.86375
0.04,1.96993
0.04,2.04685
0.04,2.10227
0.04,2.144557
0.04,2.184039
0.04,2.221668
0.04,2.257486
0.04,2.29355
0.04,2.3295
0.04,2.36647
0.04,2.40608
0.04,2.4495
0.04,2.49696
0.04,2.548612
0.04,2.6059
0.04,2.669654
0.04,2.73919
0.04,2.81346
0.04,2.89244
0.04,2.975588
0.04,3.06119
0.04,3.148153
0.04,3.24303
0.04,3.34175
0.04,3.43886
0.04,3.53744
0.04,3.64165
0.04,3.75214
0.04,3.87383
0.04,4.00107
0.04,4.12072
0.04,4.224809
0.04,4.308124
0.04,4.37833
0.04,4.438841
0.04,4.48909
0.04,4.53561
0.04,4.57668
0.04,4.615394
0.04,4.65127
0.04,4.685542
0.04,4.71579
0.04,4.746683
0.04,4.77664
0.04,4.805687
0.04,4.831506
0.04,4.84776

File: charging_cycle_169.csv
control/mA,Ewe/V
-0.04,-3.848645
-0.04,-3.932361
-0.04,-4.0151
-0.04,-4.08819
-0.04,-4.150858
-0.04,-4.204223
-0.04,-4.24848
-0.04,-4.28916
-0.04,-4.32477
-0.04,-4.35368
0.04,-3.67214
0.04,-2.67194
0.04,-1.67192
0.04,-0.671887
0.04,0.32813
0.04,0.7485986
0.04,0.8580952
0.04,0.9395021
0.04,1.022054
0.04,1.10978
0.04,1.193245
0.04,1.27832
0.04,1.37371
0.04,1.48057
0.04,1.60314
0.04,1.73787
0.04,1.8712
0.04,1.97653
0.04,2.05157
0.04,2.105533
0.04,2.14738
0.04,2.187035
0.04,2.2247
0.04,2.25959
0.04,2.29502
0.04,2.33059
0.04,2.36836
0.04,2.40711
0.04,2.45079
0.04,2.49724
0.04,2.54842
0.04,2.60634
0.04,2.67005
0.04,2.739
0.04,2.81371
0.04,2.89222
0.04,2.97273
0.04,3.05951
0.04,3.14955
0.04,3.243605
0.04,3.34011
0.04,3.43428
0.04,3.5363
0.04,3.63955
0.04,3.74958
0.04,3.87072
0.04,3.99562
0.04,4.11506
0.04,4.218569
0.04,4.30648
0.04,4.379322
0.04,4.4388
0.04,4.49107
0.04,4.53611
0.04,4.575855
0.04,4.61284
0.04,4.65083
0.04,4.685924
0.04,4.7188
0.04,4.749603
0.04,4.77968
0.04,4.804256
0.04,4.82725
0.04,4.84614

File: charging_cycle_170.csv
control/mA,Ewe/V
-0.04,-3.88084
-0.04,-3.96572
-0.04,-4.045922
-0.04,-4.11737
-0.04,-4.176085
-0.04,-4.22535
-0.04,-4.27052
-0.04,-4.310743
-0.04,-4.346351
-0.04,-4.374918
0.04,-3.68978
0.04,-2.68934
0.04,-1.68926
0.04,-0.6892143
0.04,0.310803
0.04,0.745068
0.04,0.8581906
0.04,0.9424981
0.04,1.026214
0.04,1.11321
0.04,1.19817
0.04,1.28446
0.04,1.38073
0.04,1.48977
0.04,1.614706
0.04,1.751014
0.04,1.882761
0.04,1.98483
0.04,2.05847
0.04,2.11116
0.04,2.15236
0.04,2.19127
0.04,2.22728
0.04,2.26193
0.04,2.298037
0.04,2.33321
0.04,2.36925
0.04,2.40885
0.04,2.45112
0.04,2.49686
0.04,2.548345
0.04,2.597693
0.04,2.66631
0.04,2.73469
0.04,2.80604
0.04,2.88411
0.04,2.96559
0.04,3.04974
0.04,3.136131
0.04,3.22925
0.04,3.32442
0.04,3.4214
0.04,3.51874
0.04,3.61946
0.04,3.72397
0.04,3.84129
0.04,3.96444
0.04,4.086622
0.04,4.193352
0.04,4.28278
0.04,4.355621
0.04,4.416877
0.04,4.4688
0.04,4.51536
0.04,4.56017
0.04,4.60078
0.04,4.639
0.04,4.673921
0.04,4.70806
0.04,4.73983
0.04,4.77122
0.04,4.80143
0.04,4.829846
0.04,4.848337

File: charging_cycle_171.csv
control/mA,Ewe/V
-0.04,-3.9154
-0.04,-4.00405
-0.04,-4.08434
-0.04,-4.15307
-0.04,-4.20995
-0.04,-4.259143
-0.04,-4.301621
-0.04,-4.34137
-0.04,-4.37591
-0.04,-4.40387
0.04,-3.718953
0.04,-2.718786
0.04,-1.71871
0.04,-0.7186971
0.04,0.28132
0.04,0.740183
0.04,0.85529
0.04,0.9400555
0.04,1.02129
0.04,1.107411
0.04,1.19366
0.04,1.28164
0.04,1.37795
0.04,1.4871
0.04,1.60952
0.04,1.74949
0.04,1.88232
0.04,1.98585
0.04,2.05863
0.04,2.110418
0.04,2.15072
0.04,2.18847
0.04,2.22568
0.04,2.260196
0.04,2.295995
0.04,2.33113
0.04,2.3616
0.04,2.401141
0.04,2.442913
0.04,2.48961
0.04,2.54096
0.04,2.59785
0.04,2.66013
0.04,2.72839
0.04,2.801172
0.04,2.87821
0.04,2.95902
0.04,3.04232
0.04,3.12766
0.04,3.21885
0.04,3.31349
0.04,3.4094
0.04,3.506584
0.04,3.60566
0.04,3.71209
0.04,3.82908
0.04,3.95165
0.04,4.072959
0.04,4.182284
0.04,4.275779
0.04,4.353942
0.04,4.417907
0.04,4.473552
0.04,4.52179
0.04,4.56656
0.04,4.608467
0.04,4.648789
0.04,4.68455
0.04,4.71886
0.04,4.752427
0.04,4.784372
0.04,4.815076
0.04,4.844597
0.04,4.86442

File: charging_cycle_172.csv
control/mA,Ewe/V
-0.04,-3.95366
-0.04,-4.0426
-0.04,-4.122005
-0.04,-4.189443
-0.04,-4.24693
-0.04,-4.294732
-0.04,-4.33576
-0.04,-4.37133
-0.04,-4.407511
-0.04,-4.43465
0.04,-3.74957
0.04,-2.74922
0.04,-1.74909
0.04,-0.7490195
0.04,0.2509975
0.04,0.7285617
0.04,0.848134
0.04,0.9322888
0.04,1.01517
0.04,1.102354
0.04,1.1896
0.04,1.2799
0.04,1.37787
0.04,1.48437
0.04,1.60797
0.04,1.74611
0.04,1.88171
0.04,1.98436
0.04,2.057845
0.04,2.10834
0.04,2.14912
0.04,2.18669
0.04,2.222622
0.04,2.25783
0.04,2.29256
0.04,2.327329
0.04,2.363796
0.04,2.40173
0.04,2.44398
0.04,2.49014
0.04,2.54022
0.04,2.59664
0.04,2.65895
0.04,2.72711
0.04,2.798157
0.04,2.8751
0.04,2.95223
0.04,3.03677
0.04,3.1242
0.04,3.2137
0.04,3.30788
0.04,3.40251
0.04,3.49781
0.04,3.597093
0.04,3.701762
0.04,3.81679
0.04,3.93896
0.04,4.06059
0.04,4.17108
0.04,4.266543
0.04,4.34864
0.04,4.41436
0.04,4.471453
0.04,4.521393
0.04,4.56795
0.04,4.61137
0.04,4.649457
0.04,4.688958
0.04,4.72397
0.04,4.759316
0.04,4.79273
0.04,4.82425
0.04,4.85589
0.04,4.87702

File: charging_cycle_173.csv
control/mA,Ewe/V
-0.04,-3.99184
-0.04,-4.08264
-0.04,-4.158415
-0.04,-4.22447
-0.04,-4.27962
-0.04,-4.32502
-0.04,-4.36692
-0.04,-4.40335
-0.04,-4.438139
-0.04,-4.46434
0.04,-3.77995
0.04,-2.779717
0.04,-1.7797
0.04,-0.77959
0.04,0.220484
0.04,0.7229705
0.04,0.84489
0.04,0.927785
0.04,1.00755
0.04,1.09352
0.04,1.18153
0.04,1.27255
0.04,1.371554
0.04,1.48138
0.04,1.60837
0.04,1.748037
0.04,1.88518
0.04,1.9894
0.04,2.06057
0.04,2.11236
0.04,2.151961
0.04,2.189077
0.04,2.22579
0.04,2.25773
0.04,2.29422
0.04,2.32935
0.04,2.36538
0.04,2.404137
0.04,2.44641
0.04,2.492566
0.04,2.54312
0.04,2.60006
0.04,2.662326
0.04,2.72999
0.04,2.80245
0.04,2.87783
0.04,2.95693
0.04,3.04119
0.04,3.12802
0.04,3.21977
0.04,3.313505
0.04,3.40735
0.04,3.50447
0.04,3.60322
0.04,3.70928
0.04,3.8233
0.04,3.94365
0.04,4.064315
0.04,4.17339
0.04,4.27147
0.04,4.352988
0.04,4.42035
0.04,4.478533
0.04,4.53078
0.04,4.578431
0.04,4.62278
0.04,4.66343
0.04,4.700675
0.04,4.73655
0.04,4.765384
0.04,4.80073
0.04,4.83307
0.04,4.865187
0.04,4.8879

File: charging_cycle_174.csv
control/mA,Ewe/V
-0.04,-4.054757
-0.04,-4.13813
-0.04,-4.212753
-0.04,-4.272787
-0.04,-4.32431
-0.04,-4.369804
-0.04,-4.41013
-0.04,-4.44436
-0.04,-4.47495
-0.04,-4.50249
0.04,-3.81554
0.04,-2.81523
0.04,-1.81518
0.04,-0.8151602
0.04,0.184908
0.04,0.7169212
0.04,0.840844
0.04,0.923663
0.04,1.003143
0.04,1.08968
0.04,1.17756
0.04,1.26841
0.04,1.36612
0.04,1.47752
0.04,1.60473
0.04,1.74493
0.04,1.88215
0.04,1.9888
0.04,2.06183
0.04,2.113185
0.04,2.15389
0.04,2.191195
0.04,2.22756
0.04,2.26237
0.04,2.297827
0.04,2.33223
0.04,2.36872
0.04,2.40736
0.04,2.44973
0.04,2.49564
0.04,2.54636
0.04,2.601433
0.04,2.6625
0.04,2.7298
0.04,2.80043
0.04,2.87109
0.04,2.95141
0.04,3.033714
0.04,3.11959
0.04,3.209485
0.04,3.3024
0.04,3.3948
0.04,3.49029
0.04,3.58847
0.04,3.692316
0.04,3.805133
0.04,3.92251
0.04,4.0447
0.04,4.158335
0.04,4.2583
0.04,4.344897
0.04,4.41661
0.04,4.476739
0.04,4.52994
0.04,4.577782
0.04,4.62146
0.04,4.663845
0.04,4.70377
0.04,4.73958
0.04,4.774735
0.04,4.808874
0.04,4.84105
0.04,4.87278
0.04,4.89488

File: charging_cycle_175.csv
control/mA,Ewe/V
-0.04,-4.143893
-0.04,-4.214051
-0.04,-4.274905
-0.04,-4.32776
-0.04,-4.37354
-0.04,-4.41366
-0.04,-4.449302
-0.04,-4.480865
-0.04,-4.51147
-0.04,-4.535041
0.04,-3.85209
0.04,-2.85158
0.04,-1.85153
0.04,-0.8513792
0.04,0.14867
0.04,0.711788
0.04,0.8401765
0.04,0.9220414
0.04,0.998868
0.04,1.08381
0.04,1.17243
0.04,1.26387
0.04,1.36367
0.04,1.47183
0.04,1.59873
0.04,1.73991
0.04,1.87956
0.04,1.98569
0.04,2.05912
0.04,2.112479
0.04,2.15295
0.04,2.18858
0.04,2.22611
0.04,2.25821
0.04,2.29544
0.04,2.330096
0.04,2.36708
0.04,2.40614
0.04,2.44858
0.04,2.49524
0.04,2.54564
0.04,2.60109
0.04,2.66214
0.04,2.72772
0.04,2.79831
0.04,2.871339
0.04,2.91781

File: charging_cycle_176.csv
control/mA,Ewe/V
0.04,2.54564
0.04,2.60109
0.04,2.66214
0.04,2.72772
0.04,2.79831
0.04,2.871339
0.04,2.91781
0.0,2.91803
0.0,1.08625
0.0,1.08625
0.04,1.08541
0.04,2.085589
0.08,3.085619
0.08,3.74928
0.08,4.09616
0.08,4.42655
0.08,4.73199
0.08,4.989549
0.08,5.190967
0.08,5.3496
0.08,5.48845
0.08,5.610959
0.08,5.713929
0.08,5.804267
0.08,5.88088
0.08,5.94655
0.08,5.99962
0.08,6.03505
0.08,6.05658
0.08,6.066635
0.08,6.066578
0.08,6.06975
0.08,6.06536
0.08,6.0591
0.08,6.05047
0.08,6.041885
0.08,6.035874

File: charging_cycle_177.csv
control/mA,Ewe/V
-0.08,-5.534212
-0.08,-5.549345
-0.08,-5.56425
-0.08,-5.57742
-0.08,-5.588827
-0.08,-5.598101
-0.08,-5.60673
-0.08,-5.61543
-0.08,-5.621878
-0.08,-5.624645
0.08,-4.616283
0.08,-3.616
0.08,-2.61595
0.08,-1.61593
0.08,-0.615822
0.08,0.384214
0.08,0.7130093
0.08,0.772433
0.08,0.82304
0.08,0.887215
0.08,0.9708932
0.08,1.08634
0.08,1.23107
0.08,1.40413
0.08,1.603619
0.08,1.81612
0.08,1.987964
0.08,2.09527
0.08,2.16723
0.08,2.22272
0.08,2.27052
0.08,2.31901
0.08,2.36925
0.08,2.41956
0.08,2.47255
0.08,2.52911
0.08,2.59128
0.08,2.66082
0.08,2.73641
0.08,2.81791
0.08,2.90395
0.08,2.99746
0.08,3.098767
0.08,3.20826
0.08,3.32532
0.08,3.45077
0.08,3.58261
0.08,3.72262
0.08,3.87459
0.08,4.0442
0.08,4.21981
0.08,4.38966
0.08,4.54141
0.08,4.669036
0.08,4.77853
0.08,4.868202
0.08,4.94833
0.08,4.97791
0.08,5.043362
0.08,5.104446
0.08,5.150626
0.08,5.18994
0.08,5.220202
0.08,5.25106
0.08,5.28174
0.08,5.310597
0.08,5.338992
0.08,5.36708
0.08,5.391374
0.08,5.411506
0.08,5.423452
0.08,5.44135
0.08,5.46209
0.08,5.47757
0.08,5.48362

File: charging_cycle_178.csv
control/mA,Ewe/V
-0.08,-4.999324
-0.08,-5.031192
-0.08,-5.06077
-0.08,-5.090043
-0.08,-5.118858
-0.08,-5.1446
-0.08,-5.17343
-0.08,-5.20097
-0.08,-5.228278
-0.08,-5.238678
0.08,-4.45686
0.08,-3.45633
0.08,-2.4563
0.08,-1.45623
0.08,-0.456138
0.08,0.5026986
0.08,0.82678
0.08,0.9153434
0.08,1.01719
0.08,1.14825
0.08,1.29101
0.08,1.43151
0.08,1.592551
0.08,1.76689
0.08,1.90944
0.08,1.99697
0.08,2.05504
0.08,2.09779
0.08,2.132096
0.08,2.16391
0.08,2.195126
0.08,2.226286
0.08,2.259547
0.08,2.29603
0.08,2.33784
0.08,2.38566
0.08,2.44213
0.08,2.51001
0.08,2.58872
0.08,2.67469
0.08,2.76755
0.08,2.86145
0.08,2.95811
0.08,3.06108
0.08,3.1705
0.08,3.28513
0.08,3.4069
0.08,3.533815
0.08,3.66818
0.08,3.82217
0.08,3.98457
0.08,4.13351
0.08,4.261772
0.08,4.36732
0.08,4.4531
0.08,4.52038
0.08,4.57755
0.08,4.626195
0.08,4.671459
0.08,4.714529
0.08,4.756549
0.08,4.798283
0.08,4.84084
0.08,4.88213
0.08,4.91887
0.08,4.955181
0.08,4.99224
0.08,5.03027
0.08,5.06151
0.08,5.093054
0.08,5.120514
0.08,5.15055
0.08,5.17769
0.08,5.20467
0.08,5.209592

File: charging_cycle_179.csv
control/mA,Ewe/V
-0.08,-4.97181
-0.08,-5.00511
-0.08,-5.0385
-0.08,-5.07149
-0.08,-5.103916
-0.08,-5.13449
-0.08,-5.16265
-0.08,-5.18996
-0.08,-5.21534
-0.08,-5.2224
0.08,-4.45397
0.08,-3.45267
0.08,-2.45243
0.08,-1.45241
0.08,-0.45234
0.08,0.547715
0.08,0.924255
0.08,1.03564
0.08,1.14998
0.08,1.27965
0.08,1.40497
0.08,1.54236
0.08,1.70413
0.08,1.85761
0.08,1.96403
0.08,2.033133
0.08,2.08258
0.08,2.12028
0.08,2.15015
0.08,2.18295
0.08,2.21466
0.08,2.248231
0.08,2.2854
0.08,2.32676
0.08,2.37769
0.08,2.43715
0.08,2.50745
0.08,2.590117
0.08,2.68177
0.08,2.778597
0.08,2.87857
0.08,2.9821
0.08,3.09358
0.08,3.21309
0.08,3.3356
0.08,3.45903
0.08,3.587342
0.08,3.72861
0.08,3.88181
0.08,4.03752
0.08,4.17656
0.08,4.29347
0.08,4.39449
0.08,4.474373
0.08,4.54168
0.08,4.59769
0.08,4.647606
0.08,4.692832
0.08,4.735749
0.08,4.77632
0.08,4.8154
0.08,4.82614
0.08,4.881293
0.08,4.923485
0.08,4.96352
0.08,5.00233
0.08,5.04029
0.08,5.069906
0.08,5.10101
0.08,5.132517
0.08,5.16381
0.08,5.195833
0.08,5.22663
0.08,5.255448
0.08,5.263272

File: charging_cycle_180.csv
control/mA,Ewe/V
-0.08,-5.053576
-0.08,-5.08289
-0.08,-5.11632
-0.08,-5.14905
-0.08,-5.17904
-0.08,-5.209768
-0.08,-5.2395
-0.08,-5.268314
-0.08,-5.296499
-0.08,-5.30612
0.08,-4.52675
0.08,-3.526729
0.08,-2.52662
0.08,-1.52645
0.08,-0.526439
0.08,0.473597
0.08,0.918759
0.08,1.03077
0.08,1.14189
0.08,1.2708
0.08,1.39793
0.08,1.53502
0.08,1.69525
0.08,1.85553
0.08,1.97062
0.08,2.04243
0.08,2.0967
0.08,2.13595
0.08,2.16887
0.08,2.19961
0.08,2.23304
0.08,2.26861
0.08,2.307941
0.08,2.35422
0.08,2.408335
0.08,2.47297
0.08,2.53823
0.08,2.627672
0.08,2.72057
0.08,2.81716
0.08,2.9205
0.08,3.029802
0.08,3.14682
0.08,3.26897
0.08,3.39457
0.08,3.52242
0.08,3.65573
0.08,3.79716
0.08,3.94743
0.08,4.095286
0.08,4.23088
0.08,4.348503
0.08,4.44537
0.08,4.522003
0.08,4.58087
0.08,4.62942
0.08,4.67352
0.08,4.69716
0.08,4.722334
0.08,4.74901
0.08,4.77588
0.08,4.80282
0.08,4.83004
0.08,4.85921
0.08,4.88866
0.08,4.918733
0.08,4.94976
0.08,4.98018
0.08,5.00857
0.08,5.039374
0.08,5.068647
0.08,5.097977
0.08,5.126792
0.08,5.154214
0.08,5.16465

File: charging_cycle_181.csv
control/mA,Ewe/V
-0.08,-5.08823
-0.08,-5.123686
-0.08,-5.15699
-0.08,-5.18958
-0.08,-5.22082
-0.08,-5.25072
-0.08,-5.27921
-0.08,-5.30709
-0.08,-5.3331
-0.08,-5.33632
0.08,-4.56683
0.08,-3.56642
0.08,-2.5662
0.08,-1.56618
0.08,-0.5661116
0.08,0.433944
0.08,0.891814
0.08,1.00331
0.08,1.11209
0.08,1.24402
0.08,1.375008
0.08,1.51092
0.08,1.6694
0.08,1.84118
0.08,1.96476
0.08,2.04199
0.08,2.094961
0.08,2.13482
0.08,2.16757
0.08,2.19961
0.08,2.2318
0.08,2.26869
0.08,2.30855
0.08,2.35418
0.08,2.40984
0.08,2.475411
0.08,2.55182
0.08,2.638301
0.08,2.73242
0.08,2.83251
0.08,2.93597
0.08,3.04627
0.08,3.16401
0.08,3.28784
0.08,3.40571
0.08,3.52836
0.08,3.659303
0.08,3.799828
0.08,3.9518
0.08,4.093187
0.08,4.22542
0.08,4.33612
0.08,4.425674
0.08,4.49534
0.08,4.55265
0.08,4.599479
0.08,4.64272
0.08,4.682718
0.08,4.719624
0.08,4.75705
0.08,4.79386
0.08,4.82903
0.08,4.86757
0.08,4.903963
0.08,4.94163
0.08,4.978672
0.08,5.01575
0.08,5.05048
0.08,5.08401
0.08,5.116831
0.08,5.14906
0.08,5.179136
0.08,5.20711
0.08,5.234991
0.08,5.245601

File: charging_cycle_182.csv
control/mA,Ewe/V
-0.08,-5.050141
-0.08,-5.08111
-0.08,-5.110824
-0.08,-5.139868
-0.08,-5.16603
-0.08,-5.19282
-0.08,-5.21929
-0.08,-5.24358
-0.08,-5.265909
-0.08,-5.2727
0.08,-4.49581
0.08,-3.494346
0.08,-2.49422
0.08,-1.49414
0.08,-0.494055
0.08,0.5059618
0.08,0.960856
0.08,1.08589
0.08,1.19752
0.08,1.31997
0.08,1.44622
0.08,1.58868
0.08,1.75598
0.08,1.91224
0.08,2.01342
0.08,2.08061
0.08,2.129825
0.08,2.167437
0.08,2.20186
0.08,2.23684
0.08,2.27462
0.08,2.31716
0.08,2.366105
0.08,2.42305
0.08,2.48749
0.08,2.56285
0.08,2.65074
0.08,2.74568
0.08,2.848688
0.08,2.95513
0.08,3.06635
0.08,3.186681
0.08,3.31007
0.08,3.435348
0.08,3.5612
0.08,3.68835
0.08,3.826143
0.08,3.97163
0.08,4.11618
0.08,4.249445
0.08,4.36673
0.08,4.46653
0.08,4.543338
0.08,4.60717
0.08,4.66104
0.08,4.707888
0.08,4.752179
0.08,4.79263
0.08,4.83088
0.08,4.868946
0.08,4.90681
0.08,4.94656
0.08,4.98388
0.08,5.0226
0.08,5.059888
0.08,5.09567
0.08,5.12756
0.08,5.1616
0.08,5.19419
0.08,5.22514
0.08,5.255123
0.08,5.28333
0.08,5.31094
0.08,5.33935
0.08,5.34683

File: charging_cycle_183.csv
control/mA,Ewe/V
-0.08,-5.013483
-0.08,-5.040256
-0.08,-5.06623
-0.08,-5.091169
-0.08,-5.115461
-0.08,-5.13821
-0.08,-5.155802
-0.08,-5.17527
-0.08,-5.18569
-0.08,-5.18916
0.08,-4.382552
0.08,-3.382464
0.08,-2.382281
0.08,-1.38226
0.08,-0.382116
0.08,0.5800218
0.08,1.02444
0.08,1.1529
0.08,1.2632
0.08,1.37844
0.08,1.50135
0.08,1.6482
0.08,1.8192
0.08,1.95955
0.08,2.05185
0.08,2.115933
0.08,2.164136
0.08,2.202776
0.08,2.24123
0.08,2.28147
0.08,2.327787
0.08,2.38124
0.08,2.44263
0.08,2.51411
0.08,2.5964
0.08,2.69013
0.08,2.7911
0.08,2.89962
0.08,3.011998
0.08,3.132906
0.08,3.25962
0.08,3.38797
0.08,3.51479
0.08,3.6431
0.08,3.77359
0.08,3.90921
0.08,4.04704
0.08,4.18331
0.08,4.313601
0.08,4.430349
0.08,4.53057
0.08,4.614478
0.08,4.684397
0.08,4.74237
0.08,4.796394
0.08,4.844845
0.08,4.89066
0.08,4.93421
0.08,4.97554
0.08,5.015788
0.08,5.052675
0.08,5.089676
0.08,5.125666
0.08,5.160282
0.08,5.186559
0.08,5.216595
0.08,5.246746
0.08,5.27766
0.08,5.307868
0.08,5.33687
0.08,5.36462
0.08,5.391813
0.08,5.41637
0.08,5.43276
0.08,5.432497

File: charging_cycle_184.csv
control/mA,Ewe/V
-0.08,-5.019246
-0.08,-5.048099
-0.08,-5.07451
-0.08,-5.10063
-0.08,-5.125594
-0.08,-5.15023
-0.08,-5.17622
-0.08,-5.19796
-0.08,-5.22055
-0.08,-5.22717
0.08,-4.42479
0.08,-3.42435
0.08,-2.42413
0.08,-1.42411
0.08,-0.424079
0.08,0.5350056
0.08,0.994384
0.08,1.11999
0.08,1.2309
0.08,1.34879
0.08,1.471185
0.08,1.61774
0.08,1.78708
0.08,1.93951
0.08,2.039373
0.08,2.108357
0.08,2.15944
0.08,2.20171
0.08,2.2435
0.08,2.288629
0.08,2.34206
0.08,2.401637
0.08,2.46917
0.08,2.5505
0.08,2.6416
0.08,2.74453
0.08,2.85166
0.08,2.963604
0.08,3.08325
0.08,3.207157
0.08,3.33644
0.08,3.46575
0.08,3.59351
0.08,3.720253
0.08,3.85024
0.08,3.98306
0.08,4.11912
0.08,4.25025
0.08,4.3727
0.08,4.482521
0.08,4.572267
0.08,4.649991
0.08,4.71243
0.08,4.76676
0.08,4.81616
0.08,4.859348
0.08,4.90017
0.08,4.94188
0.08,4.981687
0.08,5.021322
0.08,5.05628
0.08,5.09479
0.08,5.13017
0.08,5.166637
0.08,5.202436
0.08,5.236575
0.08,5.271191
0.08,5.302353
0.08,5.3321
0.08,5.361204
0.08,5.38624
0.08,5.407823
0.08,5.429234
0.08,5.44713
0.08,5.45192

File: charging_cycle_185.csv
control/mA,Ewe/V
-0.08,-5.064968
-0.08,-5.0922
-0.08,-5.119144
-0.08,-5.144715
-0.08,-5.169141
-0.08,-5.19278
-0.08,-5.215569
-0.08,-5.23774
-0.08,-5.259
-0.08,-5.26457
0.08,-4.45878
0.08,-3.45723
0.08,-2.4571
0.08,-1.4571
0.08,-0.4570348
0.08,0.490467
0.08,0.9642715
0.08,1.08993
0.08,1.19569
0.08,1.31408
0.08,1.43686
0.08,1.57996
0.08,1.74764
0.08,1.91037
0.08,2.02325
0.08,2.09883
0.08,2.15545
0.08,2.20098
0.08,2.2442
0.08,2.29142
0.08,2.34401
0.08,2.40612
0.08,2.4794
0.08,2.56399
0.08,2.66051
0.08,2.766575
0.08,2.87882
0.08,2.99639
0.08,3.12052
0.08,3.25137
0.08,3.38211
0.08,3.51282
0.08,3.64177
0.08,3.77015
0.08,3.902665
0.08,4.039507
0.08,4.17612
0.08,4.308067
0.08,4.429185
0.08,4.53387
0.08,4.621405
0.08,4.694893
0.08,4.756702
0.08,4.8129
0.08,4.865015
0.08,4.912264
0.08,4.95686
0.08,4.99978
0.08,5.04063
0.08,5.08149
0.08,5.122632
0.08,5.162706
0.08,5.20099
0.08,5.237968
0.08,5.274
0.08,5.309433
0.08,5.344526
0.08,5.37721
0.08,5.405762
0.08,5.42973
0.08,5.447019
0.08,5.46253
0.08,5.476197
0.08,5.485986
0.08,5.48992

File: charging_cycle_186.csv
control/mA,Ewe/V
-0.08,-5.09063
-0.08,-5.122522
-0.08,-5.15246
-0.08,-5.17868
-0.08,-5.20736
-0.08,-5.23368
-0.08,-5.256883
-0.08,-5.27955
-0.08,-5.30079
-0.08,-5.30581
0.08,-4.465432
0.08,-3.46519
0.08,-2.46478
0.08,-1.46472
0.08,-0.464611
0.08,0.497985
0.08,0.9776103
0.08,1.09424
0.08,1.18971
0.08,1.3045
0.08,1.4276
0.08,1.566484
0.08,1.733744
0.08,1.90732
0.08,2.02981
0.08,2.11086
0.08,2.17267
0.08,2.22308
0.08,2.27287
0.08,2.32767
0.08,2.39021
0.08,2.461118
0.08,2.54472
0.08,2.63918
0.08,2.73976
0.08,2.85105
0.08,2.96899
0.08,3.09218
0.08,3.22166
0.08,3.35316
0.08,3.48433
0.08,3.61726
0.08,3.746797
0.08,3.87925
0.08,4.015024
0.08,4.150683
0.08,4.28334
0.08,4.40898
0.08,4.52454
0.08,4.62492
0.08,4.71092
0.08,4.78208
0.08,4.844177
0.08,4.89992
0.08,4.951937
0.08,5.001018
0.08,5.045862
0.08,5.08937
0.08,5.12939
0.08,5.172209
0.08,5.21196
0.08,5.25138
0.08,5.288308
0.08,5.324718
0.08,5.36099
0.08,5.39332
0.08,5.418605
0.08,5.44156
0.08,5.46099
0.08,5.47643
0.08,5.490604
0.08,5.50011
0.08,5.508485
0.08,5.51589
0.08,5.518102

File: charging_cycle_187.csv
control/mA,Ewe/V
-0.08,-5.11924
-0.08,-5.14622
-0.08,-5.174942
-0.08,-5.202631
-0.08,-5.22744
-0.08,-5.25164
-0.08,-5.27444
-0.08,-5.294896
-0.08,-5.315887
-0.08,-5.318616
0.08,-4.495089
0.08,-3.49478
0.08,-2.49475
0.08,-1.49468
0.08,-0.494666
0.08,0.4501257
0.08,0.9438911
0.08,1.0665
0.08,1.15779
0.08,1.26553
0.08,1.38598
0.08,1.52111
0.08,1.68394
0.08,1.861522
0.08,2.0014
0.08,2.0905
0.08,2.155205
0.08,2.20869
0.08,2.258364
0.08,2.31149
0.08,2.37378
0.08,2.44717
0.08,2.53361
0.08,2.62969
0.08,2.733123
0.08,2.845711
0.08,2.96442
0.08,3.08848
0.08,3.21731
0.08,3.3503
0.08,3.48389
0.08,3.614344
0.08,3.74233
0.08,3.8719
0.08,4.0072
0.08,4.14484
0.08,4.279481
0.08,4.40859
0.08,4.52635
0.08,4.631729
0.08,4.71882
0.08,4.79294
0.08,4.8575
0.08,4.914764
0.08,4.96774
0.08,5.016933
0.08,5.06254
0.08,5.106908
0.08,5.15097
0.08,5.19268
0.08,5.23304
0.08,5.271382
0.08,5.30962
0.08,5.34714
0.08,5.38183
0.08,5.408663
0.08,5.431371
0.08,5.45013
0.08,5.46574
0.08,5.478811
0.08,5.48936
0.08,5.497703
0.08,5.503046
0.08,5.50915
0.08,5.51108

File: charging_cycle_188.csv
control/mA,Ewe/V
-0.08,-5.116759
-0.08,-5.14914
-0.08,-5.1787
-0.08,-5.204959
-0.08,-5.23026
-0.08,-5.255223
-0.08,-5.2786
-0.08,-5.296957
-0.08,-5.3177
-0.08,-5.31833
0.08,-4.486673
0.08,-3.486312
0.08,-2.48598
0.08,-1.48578
0.08,-0.4857543
0.08,0.463751
0.08,0.951009
0.08,1.069341
0.08,1.15958
0.08,1.26553
0.08,1.38487
0.08,1.52361
0.08,1.69169
0.08,1.87473
0.08,2.013077
0.08,2.101907
0.08,2.167628
0.08,2.22108
0.08,2.27321
0.08,2.33116
0.08,2.39876
0.08,2.478674
0.08,2.571626
0.08,2.674539
0.08,2.78722
0.08,2.90649
0.08,3.03089
0.08,3.161072
0.08,3.29879
0.08,3.43687
0.08,3.57106
0.08,3.7019
0.08,3.82946
0.08,3.96487
0.08,4.10349
0.08,4.24221
0.08,4.380028
0.08,4.50731
0.08,4.62373
0.08,4.72325
0.08,4.80832
0.08,4.87967
0.08,4.94356
0.08,5.00119
0.08,5.053209
0.08,5.10172
0.08,5.1475
0.08,5.19175
0.08,5.234304
0.08,5.275027
0.08,5.31434
0.08,5.35277
0.08,5.385172
0.08,5.410075
0.08,5.431524
0.08,5.4495
0.08,5.46414
0.08,5.47547
0.08,5.48541
0.08,5.493428
0.08,5.49995
0.08,5.505546
0.08,5.510908
0.08,5.51579
0.08,5.517568

File: charging_cycle_189.csv
control/mA,Ewe/V
-0.08,-5.129697
-0.08,-5.16101
-0.08,-5.19011
-0.08,-5.217191
-0.08,-5.24312
-0.08,-5.26845
-0.08,-5.291156
-0.08,-5.31423
-0.08,-5.33535
-0.08,-5.352087
0.08,-4.488757
0.08,-3.487476
0.08,-2.48724
0.08,-1.48708
0.08,-0.4869565
0.08,0.488024
0.08,0.9551309
0.08,1.06446
0.08,1.14766
0.08,1.24763
0.08,1.36182
0.08,1.49639
0.08,1.65925
0.08,1.84704
0.08,1.99997
0.08,2.09996
0.08,2.17232
0.08,2.22993
0.08,2.2854
0.08,2.34553
0.08,2.41622
0.08,2.50121
0.08,2.600994
0.08,2.71412
0.08,2.83449
0.08,2.95857
0.08,3.08802
0.08,3.227022
0.08,3.36804
0.08,3.50599
0.08,3.63885
0.08,3.7709
0.08,3.903123
0.08,4.03798
0.08,4.17509
0.08,4.312971
0.08,4.44632
0.08,4.568126
0.08,4.68281
0.08,4.78157
0.08,4.86503
0.08,4.937854
0.08,5.001323
0.08,5.058972
0.08,5.11187
0.08,5.159023
0.08,5.19127
0.08,5.22518
0.08,5.260867
0.08,5.297544
0.08,5.331912
0.08,5.36296
0.08,5.38718
0.08,5.406907
0.08,5.425303
0.08,5.43988
0.08,5.45166
0.08,5.461961
0.08,5.46919
0.08,5.47452
0.08,5.479918
0.08,5.485013
0.08,5.49028
0.08,5.495146
0.08,5.49715

File: charging_cycle_190.csv
control/mA,Ewe/V
-0.08,-5.14275
-0.08,-5.17706
-0.08,-5.208928
-0.08,-5.2383
-0.08,-5.267379
-0.08,-5.29436
-0.08,-5.319131
-0.08,-5.34077
-0.08,-5.35518
-0.08,-5.36865
0.08,-4.533964
0.08,-3.532206
0.08,-2.53206
0.08,-1.53206
0.08,-0.5320108
0.08,0.442569
0.08,0.9351894
0.08,1.06009
0.08,1.14289
0.08,1.24055
0.08,1.35409
0.08,1.48536
0.08,1.64541
0.08,1.83036
0.08,1.98651
0.08,2.08616
0.08,2.15757
0.08,2.21634
0.08,2.27124
0.08,2.33061
0.08,2.39948
0.08,2.4839
0.08,2.58727
0.08,2.704499
0.08,2.828861
0.08,2.956887
0.08,3.08821
0.08,3.22727
0.08,3.37165
0.08,3.51395
0.08,3.65073
0.08,3.78496
0.08,3.916767
0.08,4.05336
0.08,4.19024
0.08,4.329802
0.08,4.46405
0.08,4.58866
0.08,4.69985
0.08,4.79571
0.08,4.876217
0.08,4.94595
0.08,5.00583
0.08,5.06021
0.08,5.109656
0.08,5.15713
0.08,5.202226
0.08,5.246517
0.08,5.28837
0.08,5.328153
0.08,5.36296
0.08,5.38987
0.08,5.412422
0.08,5.431581
0.08,5.44599
0.08,5.458221
0.08,5.467247
0.08,5.47606
0.08,5.48263
0.08,5.488505
0.08,5.49423
0.08,5.49919
0.08,5.50385
0.08,5.50824
0.08,5.50984

File: charging_cycle_191.csv
control/mA,Ewe/V
-0.08,-5.21748
-0.08,-5.249613
-0.08,-5.279916
-0.08,-5.309189
-0.08,-5.335714
-0.08,-5.357392
-0.08,-5.37563
-0.08,-5.39172
-0.08,-5.406
-0.08,-5.41596
0.08,-4.569072
0.08,-3.56804
0.08,-2.567708
0.08,-1.56767
0.08,-0.567657
0.08,0.432436
0.08,0.933014
0.08,1.05272
0.08,1.13144
0.08,1.22422
0.08,1.32877
0.08,1.45334
0.08,1.604993
0.08,1.79036
0.08,1.96108
0.08,2.073512
0.08,2.152839
0.08,2.21631
0.08,2.2763
0.08,2.33653
0.08,2.408087
0.08,2.4914
0.08,2.59294
0.08,2.71225
0.08,2.843173
0.08,2.9766
0.08,3.11356
0.08,3.256543
0.08,3.40848
0.08,3.55799
0.08,3.70052
0.08,3.83862
0.08,3.97394
0.08,4.11317
0.08,4.256028
0.08,4.3985
0.08,4.53288
0.08,4.6549
0.08,4.766701
0.08,4.86316
0.08,4.942701
0.08,5.014414
0.08,5.07632
0.08,5.131658
0.08,5.18486
0.08,5.23335
0.08,5.279511
0.08,5.32247
0.08,5.35947
0.08,5.39021
0.08,5.4095
0.08,5.42824
0.08,5.442382
0.08,5.453355
0.08,5.46391
0.08,5.472037
0.08,5.479822
0.08,5.486387
0.08,5.49213
0.08,5.49797
0.08,5.502779
0.08,5.50747
0.08,5.51165
0.08,5.51545
0.08,5.517167