Folder: Battery_Analysis1 (part 3)

File: charging_cycle_49.csv
control/mA,Ewe/V
-0.01,-0.499583
-0.01,-0.502045
-0.01,-0.5044683
-0.01,-0.5068537
-0.01,-0.5091245
-0.01,-0.511434
-0.01,-0.513762
-0.01,-0.5158989
-0.01,-0.518361
-0.01,-0.5204787
0.01,-0.2687
0.01,0.201382
0.01,0.2465703
0.01,0.275004
0.01,0.297197
0.01,0.314963
0.01,0.3302862
0.01,0.3438922
0.01,0.3559143
0.01,0.366372
0.01,0.376008
0.01,0.385111
0.01,0.393393
0.01,0.40095
0.01,0.408544
0.01,0.415548
0.01,0.422208
0.01,0.428772
0.01,0.4344397
0.01,0.440413
0.01,0.445889
0.01,0.451366
0.01,0.456671
0.01,0.461423
0.01,0.466212
0.01,0.470716
0.01,0.475105
0.01,0.479303
0.01,0.483272
0.01,0.487509
0.01,0.4914398
0.01,0.495638
0.01,0.4994736
0.01,0.5033283
0.01,0.5070113
0.01,0.5106752
0.01,0.5142055
0.01,0.51764
0.01,0.520541
0.01,0.524014
0.01,0.5269718
0.01,0.5300823
0.01,0.533021
0.01,0.5360743
0.01,0.5390321
0.01,0.5418373
0.01,0.5448905
0.01,0.547448
0.01,0.5503291
0.01,0.5525999
0.01,0.555539
0.01,0.5577713
0.01,0.5604429
0.01,0.562752
0.01,0.5647556
0.01,0.567179
0.01,0.5695263
0.01,0.5718544
0.01,0.5741443
0.01,0.5759953
0.01,0.5782662

File: charging_cycle_50.csv
control/mA,Ewe/V
-0.01,-0.5086665
-0.01,-0.5109946
-0.01,-0.513533
-0.01,-0.516032
-0.01,-0.518246
-0.01,-0.520536
-0.01,-0.5228068
-0.01,-0.525154
-0.01,-0.527463
-0.01,-0.529543
0.01,-0.276556
0.01,0.199035
0.01,0.244376
0.01,0.2728663
0.01,0.294334
0.01,0.312024
0.01,0.327042
0.01,0.340553
0.01,0.3524794
0.01,0.363471
0.01,0.373051
0.01,0.3824202
0.01,0.390626
0.01,0.398621
0.01,0.406216
0.01,0.4132388
0.01,0.419765
0.01,0.426177
0.01,0.432264
0.01,0.438256
0.01,0.443676
0.01,0.449191
0.01,0.454381
0.01,0.459209
0.01,0.464132
0.01,0.468884
0.01,0.4733303
0.01,0.478006
0.01,0.482166
0.01,0.4863447
0.01,0.4906
0.01,0.494588
0.01,0.4985004
0.01,0.501897
0.01,0.505523
0.01,0.509492
0.01,0.5130605
0.01,0.516629
0.01,0.519968
0.01,0.523403
0.01,0.526418
0.01,0.529567
0.01,0.5329829
0.01,0.535693
0.01,0.5386314
0.01,0.5415892
0.01,0.544547
0.01,0.5475239
0.01,0.5505199
0.01,0.5530579
0.01,0.5559776
0.01,0.5584965
0.01,0.561244
0.01,0.5640114
0.01,0.566149
0.01,0.568458
0.01,0.5709957
0.01,0.573419
0.01,0.575556
0.01,0.5779036
0.01,0.5802508

File: charging_cycle_51.csv
control/mA,Ewe/V
-0.01,-0.5056133
-0.01,-0.5079223
-0.01,-0.5105367
-0.01,-0.512941
-0.01,-0.5151928
-0.01,-0.5175591
-0.01,-0.5199063
-0.01,-0.5221962
-0.01,-0.524314
-0.01,-0.5263753
0.01,-0.272628
0.01,0.200218
0.01,0.24512
0.01,0.2728472
0.01,0.293762
0.01,0.3109554
0.01,0.3259735
0.01,0.3391406
0.01,0.351182
0.01,0.3616391
0.01,0.371448
0.01,0.380397
0.01,0.3889465
0.01,0.396675
0.01,0.4044035
0.01,0.411712
0.01,0.4180095
0.01,0.42444
0.01,0.430547
0.01,0.436424
0.01,0.4424926
0.01,0.448008
0.01,0.453026
0.01,0.4579496
0.01,0.4629302
0.01,0.467644
0.01,0.472395
0.01,0.477128
0.01,0.481402
0.01,0.4856768
0.01,0.489799
0.01,0.4938824
0.01,0.497871
0.01,0.5015155
0.01,0.505408
0.01,0.5091677
0.01,0.512736
0.01,0.5165527
0.01,0.519549
0.01,0.5231362
0.01,0.5268001
0.01,0.530235
0.01,0.5335554
0.01,0.5365704
0.01,0.5397954
0.01,0.5430395
0.01,0.546264
0.01,0.549165
0.01,0.5520847
0.01,0.555138
0.01,0.558382
0.01,0.5611681
0.01,0.563687
0.01,0.566301
0.01,0.5686485
0.01,0.571091
0.01,0.5738008
0.01,0.5763961
0.01,0.578762
0.01,0.5810332
0.01,0.583361

File: charging_cycle_52.csv
control/mA,Ewe/V
-0.01,-0.5096016
-0.01,-0.5122541
-0.01,-0.514506
-0.01,-0.517273
-0.01,-0.5197536
-0.01,-0.5224633
-0.01,-0.524887
-0.01,-0.527272
-0.01,-0.529753
-0.01,-0.5317948
0.01,-0.2766358
0.01,0.200524
0.01,0.245597
0.01,0.273668
0.01,0.294525
0.01,0.311223
0.01,0.3261834
0.01,0.339236
0.01,0.350857
0.01,0.361372
0.01,0.3711614
0.01,0.3801112
0.01,0.388603
0.01,0.396599
0.01,0.403965
0.01,0.4110252
0.01,0.4178
0.01,0.424345
0.01,0.43049
0.01,0.4368441
0.01,0.442588
0.01,0.4477976
0.01,0.453351
0.01,0.45835
0.01,0.463579
0.01,0.468083
0.01,0.47291
0.01,0.477452
0.01,0.482013
0.01,0.4864592
0.01,0.491039
0.01,0.495352
0.01,0.4995881
0.01,0.5037291
0.01,0.507488
0.01,0.511343
0.01,0.514835
0.01,0.51869
0.01,0.522297
0.01,0.5256933
0.01,0.5291854
0.01,0.5324486
0.01,0.536017
0.01,0.5395664
0.01,0.5426387
0.01,0.5456729
0.01,0.548612
0.01,0.551684
0.01,0.5547181
0.01,0.557695
0.01,0.560424
0.01,0.5636107
0.01,0.566778
0.01,0.569679
0.01,0.572484
0.01,0.5754229
0.01,0.5778654
0.01,0.5805943
0.01,0.583151
0.01,0.5855367
0.01,0.5875404

File: charging_cycle_53.csv
control/mA,Ewe/V
-0.01,-0.515918
-0.01,-0.5190285
-0.01,-0.5213184
-0.01,-0.5238182
-0.01,-0.5263753
-0.01,-0.5289324
-0.01,-0.531146
-0.01,-0.533512
-0.01,-0.5358022
-0.01,-0.5381303
0.01,-0.281766
0.01,0.1997413
0.01,0.246036
0.01,0.274145
0.01,0.294888
0.01,0.311986
0.01,0.3265269
0.01,0.33956
0.01,0.3513726
0.01,0.362135
0.01,0.371677
0.01,0.3807791
0.01,0.388832
0.01,0.3967895
0.01,0.404155
0.01,0.411235
0.01,0.4179713
0.01,0.424669
0.01,0.430814
0.01,0.436806
0.01,0.4423972
0.01,0.447779
0.01,0.453198
0.01,0.458427
0.01,0.463503
0.01,0.468617
0.01,0.473597
0.01,0.47812
0.01,0.482643
0.01,0.4870126
0.01,0.4916306
0.01,0.4955998
0.01,0.4994736
0.01,0.5036909
0.01,0.507507
0.01,0.5114385
0.01,0.5151024
0.01,0.519033
0.01,0.5227927
0.01,0.5266856
0.01,0.530598
0.01,0.5340897
0.01,0.53762
0.01,0.5412648
0.01,0.5446806
0.01,0.5478674
0.01,0.5513214
0.01,0.5543937
0.01,0.5575423
0.01,0.5607101
0.01,0.563859
0.01,0.5667402
0.01,0.5698698
0.01,0.57237
0.01,0.5753847
0.01,0.5781708
0.01,0.580976
0.01,0.5838574
0.01,0.5864145
0.01,0.589468
0.01,0.5917386

File: charging_cycle_54.csv
control/mA,Ewe/V
-0.01,-0.519849
-0.01,-0.5221771
-0.01,-0.524925
-0.01,-0.5274249
-0.01,-0.5299819
-0.01,-0.53231
-0.01,-0.534829
-0.01,-0.5374433
-0.01,-0.5397714
-0.01,-0.5414507
0.01,-0.283048
0.01,0.200466
0.01,0.24678
0.01,0.2750799
0.01,0.296204
0.01,0.313741
0.01,0.328435
0.01,0.341602
0.01,0.353434
0.01,0.364139
0.01,0.373852
0.01,0.382687
0.01,0.391236
0.01,0.399137
0.01,0.4065026
0.01,0.4139067
0.01,0.42049
0.01,0.427017
0.01,0.43318
0.01,0.439229
0.01,0.4451451
0.01,0.45087
0.01,0.455908
0.01,0.461117
0.01,0.466289
0.01,0.471098
0.01,0.4753912
0.01,0.480028
0.01,0.484608
0.01,0.489035
0.01,0.493672
0.01,0.497508
0.01,0.501897
0.01,0.5059999
0.01,0.5095684
0.01,0.513595
0.01,0.517335
0.01,0.521304
0.01,0.5249491
0.01,0.5291282
0.01,0.5324104
0.01,0.5357117
0.01,0.5389749
0.01,0.5426387
0.01,0.5459019
0.01,0.5490887
0.01,0.552237
0.01,0.5557486
0.01,0.559088
0.01,0.5621604
0.01,0.5654617
0.01,0.568515
0.01,0.571377
0.01,0.574755
0.01,0.5773884
0.01,0.579945
0.01,0.582598
0.01,0.5854413
0.01,0.5882846
0.01,0.5911661
0.01,0.5937232

File: charging_cycle_55.csv
control/mA,Ewe/V
-0.01,-0.5194864
-0.01,-0.522158
-0.01,-0.5249632
-0.01,-0.527864
-0.01,-0.5302682
-0.01,-0.533092
-0.01,-0.535592
-0.01,-0.5380158
-0.01,-0.5402103
-0.01,-0.542577
0.01,-0.2838497
0.01,0.2014015
0.01,0.247811
0.01,0.276378
0.01,0.29754
0.01,0.314772
0.01,0.329676
0.01,0.3432052
0.01,0.35517
0.01,0.3659709
0.01,0.375875
0.01,0.385035
0.01,0.393431
0.01,0.4013312
0.01,0.4089261
0.01,0.4161203
0.01,0.4230664
0.01,0.429707
0.01,0.4359663
0.01,0.442149
0.01,0.447988
0.01,0.453904
0.01,0.4593808
0.01,0.464667
0.01,0.469934
0.01,0.4749714
0.01,0.480028
0.01,0.484398
0.01,0.488825
0.01,0.4933099
0.01,0.498061
0.01,0.5023933
0.01,0.506515
0.01,0.510752
0.01,0.514702
0.01,0.5184228
0.01,0.5225828
0.01,0.5264375
0.01,0.530273
0.01,0.5339561
0.01,0.5376391
0.01,0.541398
0.01,0.5450813
0.01,0.5484399
0.01,0.552333
0.01,0.5556913
0.01,0.5590117
0.01,0.562179
0.01,0.5654044
0.01,0.5684386
0.01,0.5713964
0.01,0.5749458
0.01,0.577885
0.01,0.5808805
0.01,0.5839338
0.01,0.5870824
0.01,0.589888
0.01,0.5927118
0.01,0.595651
0.01,0.5983412
0.01,0.601146

File: charging_cycle_56.csv
control/mA,Ewe/V
-0.01,-0.5217573
-0.01,-0.5245243
-0.01,-0.5271768
-0.01,-0.530077
-0.01,-0.533169
-0.01,-0.535592
-0.01,-0.5382066
-0.01,-0.540706
-0.01,-0.542882
-0.01,-0.5455916
0.01,-0.285212
0.01,0.204207
0.01,0.250845
0.01,0.279221
0.01,0.30046
0.01,0.3177107
0.01,0.332557
0.01,0.345762
0.01,0.357613
0.01,0.368184
0.01,0.378279
0.01,0.3874962
0.01,0.395854
0.01,0.404232
0.01,0.411598
0.01,0.41904
0.01,0.4256998
0.01,0.432073
0.01,0.4386379
0.01,0.44484
0.01,0.450813
0.01,0.456366
0.01,0.461747
0.01,0.4669185
0.01,0.472014
0.01,0.477223
0.01,0.482204
0.01,0.4870126
0.01,0.4915352
0.01,0.496115
0.01,0.50058
0.01,0.5048931
0.01,0.509072
0.01,0.513404
0.01,0.5174114
0.01,0.5217813
0.01,0.5259223
0.01,0.5296625
0.01,0.533708
0.01,0.5374673
0.01,0.5411312
0.01,0.5448905
0.01,0.548593
0.01,0.552104
0.01,0.555386
0.01,0.5587255
0.01,0.5626184
0.01,0.56613
0.01,0.569049
0.01,0.5725223
0.01,0.5758999
0.01,0.5790486
0.01,0.5821209
0.01,0.585289
0.01,0.588456
0.01,0.5915478
0.01,0.5945247
0.01,0.5973871
0.01,0.6003449
0.01,0.603055
0.01,0.605803

File: charging_cycle_57.csv
control/mA,Ewe/V
-0.01,-0.525345
-0.01,-0.527921
-0.01,-0.5307262
-0.01,-0.533379
-0.01,-0.5358976
-0.01,-0.5390081
-0.01,-0.541241
-0.01,-0.543645
-0.01,-0.5463358
-0.01,-0.5488357
0.01,-0.2878574
0.01,0.203539
0.01,0.2504441
0.01,0.279526
0.01,0.300708
0.01,0.317997
0.01,0.332595
0.01,0.3456287
0.01,0.357842
0.01,0.368891
0.01,0.378852
0.01,0.388126
0.01,0.396541
0.01,0.404785
0.01,0.412781
0.01,0.420128
0.01,0.426883
0.01,0.433505
0.01,0.439783
0.01,0.446042
0.01,0.452091
0.01,0.4576252
0.01,0.463426
0.01,0.468808
0.01,0.4740936
0.01,0.479131
0.01,0.483826
0.01,0.488692
0.01,0.493577
0.01,0.498214
0.01,0.502737
0.01,0.507488
0.01,0.5117247
0.01,0.5159611
0.01,0.520026
0.01,0.524472
0.01,0.5284221
0.01,0.532487
0.01,0.5361124
0.01,0.539872
0.01,0.54386
0.01,0.547791
0.01,0.551875
0.01,0.5552906
0.01,0.5593361
0.01,0.5630763
0.01,0.566588
0.01,0.570042
0.01,0.573457
0.01,0.576969
0.01,0.5805561
0.01,0.583953
0.01,0.587273
0.01,0.5900402
0.01,0.5928263
0.01,0.5961467
0.01,0.5991809
0.01,0.6021959
0.01,0.605249
0.01,0.6081879
0.01,0.611203

File: charging_cycle_58.csv
control/mA,Ewe/V
-0.01,-0.5263753
-0.01,-0.5294476
-0.01,-0.5321192
-0.01,-0.535478
-0.01,-0.5378822
-0.01,-0.541012
-0.01,-0.5433017
-0.01,-0.5461641
-0.01,-0.549103
-0.01,-0.5517744
0.01,-0.28906
0.01,0.204665
0.01,0.251513
0.01,0.2798124
0.01,0.300899
0.01,0.318131
0.01,0.333015
0.01,0.346163
0.01,0.35767
0.01,0.368375
0.01,0.378394
0.01,0.387687
0.01,0.3961216
0.01,0.403774
0.01,0.411712
0.01,0.419154
0.01,0.4260433
0.01,0.432875
0.01,0.439363
0.01,0.445641
0.01,0.451519
0.01,0.457339
0.01,0.462949
0.01,0.468426
0.01,0.4738837
0.01,0.478693
0.01,0.4836922
0.01,0.488272
0.01,0.493367
0.01,0.49789
0.01,0.502546
0.01,0.507145
0.01,0.511496
0.01,0.516018
0.01,0.5201593
0.01,0.5242239
0.01,0.528289
0.01,0.532353
0.01,0.536437
0.01,0.5405396
0.01,0.544299
0.01,0.548249
0.01,0.552237
0.01,0.55634
0.01,0.560233
0.01,0.5638778
0.01,0.567294
0.01,0.5709766
0.01,0.5749076
0.01,0.578228
0.01,0.5816629
0.01,0.585155
0.01,0.58838
0.01,0.592101
0.01,0.5951544
0.01,0.5982649
0.01,0.601356
0.01,0.60439
0.01,0.607692
0.01,0.6105923
0.01,0.6134929

File: charging_cycle_59.csv
control/mA,Ewe/V
-0.01,-0.531375
-0.01,-0.534085
-0.01,-0.5370807
-0.01,-0.5402294
-0.01,-0.5430727
-0.01,-0.5462213
-0.01,-0.5484922
-0.01,-0.5508775
-0.01,-0.553702
-0.01,-0.555686
0.01,-0.292587
0.01,0.203272
0.01,0.250406
0.01,0.278744
0.01,0.300021
0.01,0.317234
0.01,0.332118
0.01,0.3455333
0.01,0.35767
0.01,0.367841
0.01,0.3776686
0.01,0.387115
0.01,0.395492
0.01,0.403774
0.01,0.411407
0.01,0.418601
0.01,0.425337
0.01,0.432264
0.01,0.438657
0.01,0.444783
0.01,0.450889
0.01,0.456919
0.01,0.462644
0.01,0.4682352
0.01,0.473578
0.01,0.4787307
0.01,0.483864
0.01,0.488539
0.01,0.4934244
0.01,0.498252
0.01,0.5029848
0.01,0.507641
0.01,0.512221
0.01,0.5163809
0.01,0.5209226
0.01,0.525254
0.01,0.5291854
0.01,0.5334218
0.01,0.5378299
0.01,0.541742
0.01,0.545749
0.01,0.549947
0.01,0.5537449
0.01,0.5577332
0.01,0.5614352
0.01,0.565023
0.01,0.5686103
0.01,0.572541
0.01,0.576205
0.01,0.5797356
0.01,0.5832086
0.01,0.586701
0.01,0.589983
0.01,0.5935896
0.01,0.597177
0.01,0.6000968
0.01,0.603131
0.01,0.606719
0.01,0.609924
0.01,0.613245
0.01,0.6162599

File: charging_cycle_60.csv
control/mA,Ewe/V
-0.01,-0.5350961
-0.01,-0.538302
-0.01,-0.541355
-0.01,-0.544294
-0.01,-0.547595
-0.01,-0.550439
-0.01,-0.5534346
-0.01,-0.556392
-0.01,-0.5589686
-0.01,-0.561564
0.01,-0.296434
0.01,0.202623
0.01,0.249814
0.01,0.278896
0.01,0.300002
0.01,0.3172527
0.01,0.331889
0.01,0.345228
0.01,0.357059
0.01,0.367631
0.01,0.377879
0.01,0.3871527
0.01,0.395969
0.01,0.4039455
0.01,0.411769
0.01,0.4190018
0.01,0.425776
0.01,0.4327795
0.01,0.4391913
0.01,0.4460229
0.01,0.45169
0.01,0.457873
0.01,0.4633691
0.01,0.469037
0.01,0.474361
0.01,0.479799
0.01,0.48478
0.01,0.489932
0.01,0.4947602
0.01,0.4994927
0.01,0.504588
0.01,0.509244
0.01,0.513786
0.01,0.5175259
0.01,0.5218386
0.01,0.5263421
0.01,0.530941
0.01,0.534872
0.01,0.5390894
0.01,0.542734
0.01,0.5467606
0.01,0.550482
0.01,0.5549662
0.01,0.5590117
0.01,0.562981
0.01,0.5668547
0.01,0.570786
0.01,0.5747168
0.01,0.5784379
0.01,0.581739
0.01,0.585384
0.01,0.5887044
0.01,0.5928454
0.01,0.596185
0.01,0.599791
0.01,0.603055
0.01,0.6067376
0.01,0.61002
0.01,0.612959
0.01,0.616527
0.01,0.6194276

File: charging_cycle_61.csv
control/mA,Ewe/V
-0.01,-0.538264
-0.01,-0.5415652
-0.01,-0.5444657
-0.01,-0.547233
-0.01,-0.550191
-0.01,-0.553492
-0.01,-0.5561825
-0.01,-0.559064
-0.01,-0.5618501
-0.01,-0.5645598
0.01,-0.298438
0.01,0.202756
0.01,0.250883
0.01,0.2798124
0.01,0.30088
0.01,0.318436
0.01,0.332786
0.01,0.346029
0.01,0.357498
0.01,0.368356
0.01,0.378585
0.01,0.387954
0.01,0.3963506
0.01,0.404251
0.01,0.412227
0.01,0.419479
0.01,0.426749
0.01,0.433581
0.01,0.440145
0.01,0.4467099
0.01,0.4530072
0.01,0.458808
0.01,0.464781
0.01,0.4706587
0.01,0.475754
0.01,0.481192
0.01,0.486383
0.01,0.491344
0.01,0.496592
0.01,0.5013437
0.01,0.50621
0.01,0.510828
0.01,0.5154459
0.01,0.5198731
0.01,0.5242621
0.01,0.528689
0.01,0.5331928
0.01,0.537486
0.01,0.542028
0.01,0.5464362
0.01,0.550711
0.01,0.5545082
0.01,0.5586491
0.01,0.5628474
0.01,0.566607
0.01,0.570557
0.01,0.5743924
0.01,0.5783807
0.01,0.582312
0.01,0.5862046
0.01,0.590002
0.01,0.593571
0.01,0.597292
0.01,0.6010319
0.01,0.60439
0.01,0.60836
0.01,0.6115846
0.01,0.6145424
0.01,0.6180918
0.01,0.621698
0.01,0.6246181

File: charging_cycle_62.csv
control/mA,Ewe/V
-0.01,-0.5423857
-0.01,-0.546202
-0.01,-0.5494272
-0.01,-0.552709
-0.01,-0.555744
-0.01,-0.5581671
-0.01,-0.5615829
-0.01,-0.5640446
-0.01,-0.567193
-0.01,-0.569827
0.01,-0.302446
0.01,0.203443
0.01,0.251551
0.01,0.280747
0.01,0.3025399
0.01,0.319886
0.01,0.334542
0.01,0.347995
0.01,0.359769
0.01,0.370665
0.01,0.380703
0.01,0.389901
0.01,0.3990031
0.01,0.407342
0.01,0.4153379
0.01,0.422818
0.01,0.42986
0.01,0.4368441
0.01,0.4438093
0.01,0.450431
0.01,0.456824
0.01,0.462529
0.01,0.468426
0.01,0.474151
0.01,0.479628
0.01,0.484952
0.01,0.490333
0.01,0.49518
0.01,0.5003514
0.01,0.505218
0.01,0.51016
0.01,0.5148543
0.01,0.51932
0.01,0.5242621
0.01,0.529395
0.01,0.533689
0.01,0.538326
0.01,0.5427151
0.01,0.5472186
0.01,0.551474
0.01,0.5556913
0.01,0.5597559
0.01,0.563706
0.01,0.567713
0.01,0.572122
0.01,0.5759953
0.01,0.5801554
0.01,0.584258
0.01,0.5883037
0.01,0.592216
0.01,0.596643
0.01,0.6004785
0.01,0.6042378
0.01,0.608054
0.01,0.6119472
0.01,0.6155729
0.01,0.6189124
0.01,0.622481
0.01,0.6263165
0.01,0.6296369
0.01,0.6332244

File: charging_cycle_63.csv
control/mA,Ewe/V
-0.01,-0.546011
-0.01,-0.5493509
-0.01,-0.552366
-0.01,-0.555057
-0.01,-0.558701
-0.01,-0.5620027
-0.01,-0.564961
-0.01,-0.567728
-0.01,-0.570647
-0.01,-0.5737004
0.01,-0.305251
0.01,0.204016
0.01,0.2529058
0.01,0.282293
0.01,0.304601
0.01,0.321756
0.01,0.33666
0.01,0.350151
0.01,0.3621925
0.01,0.37286
0.01,0.3832217
0.01,0.392496
0.01,0.4011976
0.01,0.409422
0.01,0.41717
0.01,0.424688
0.01,0.431921
0.01,0.438829
0.01,0.445221
0.01,0.451595
0.01,0.457892
0.01,0.46398
0.01,0.469914
0.01,0.475468
0.01,0.481116
0.01,0.486822
0.01,0.4919932
0.01,0.4970501
0.01,0.501973
0.01,0.5073548
0.01,0.512259
0.01,0.5169534
0.01,0.521877
0.01,0.526323
0.01,0.5305785
0.01,0.5352537
0.01,0.5400244
0.01,0.54449
0.01,0.549375
0.01,0.5537258
0.01,0.5580385
0.01,0.5626565
0.01,0.5668738
0.01,0.571148
0.01,0.5752702
0.01,0.579755
0.01,0.583953
0.01,0.5878839
0.01,0.591567
0.01,0.595956
0.01,0.599677
0.01,0.6034936
0.01,0.607787
0.01,0.6113556
0.01,0.6152676
0.01,0.619065
0.01,0.622557
0.01,0.626565
0.01,0.6302666
0.01,0.6333771
0.01,0.6368501

File: charging_cycle_64.csv
control/mA,Ewe/V
-0.01,-0.548874
-0.01,-0.5527858
-0.01,-0.555744
-0.01,-0.558606
-0.01,-0.561907
-0.01,-0.565342
-0.01,-0.567918
-0.01,-0.5711243
-0.01,-0.5738722
-0.01,-0.5764293
0.01,-0.306293
0.01,0.205142
0.01,0.252829
0.01,0.282847
0.01,0.303971
0.01,0.321718
0.01,0.3365835
0.01,0.3499605
0.01,0.361849
0.01,0.3730315
0.01,0.3831072
0.01,0.392878
0.01,0.4014075
0.01,0.41009
0.01,0.418048
0.01,0.4256044
0.01,0.432818
0.01,0.439668
0.01,0.446901
0.01,0.4528927
0.01,0.459152
0.01,0.465316
0.01,0.4710022
0.01,0.476822
0.01,0.482662
0.01,0.4883484
0.01,0.4935389
0.01,0.499016
0.01,0.5040535
0.01,0.509263
0.01,0.514148
0.01,0.518919
0.01,0.5236896
0.01,0.5283649
0.01,0.533574
0.01,0.5379826
0.01,0.542849
0.01,0.5472186
0.01,0.5515313
0.01,0.5559394
0.01,0.5604048
0.01,0.564565
0.01,0.56903
0.01,0.5731711
0.01,0.577427
0.01,0.5811858
0.01,0.5856321
0.01,0.5898112
0.01,0.593628
0.01,0.5977687
0.01,0.6021005
0.01,0.6059361
0.01,0.609982
0.01,0.6136074
0.01,0.617844
0.01,0.621565
0.01,0.625362
0.01,0.6294079
0.01,0.6329954
0.01,0.6367738
0.01,0.640361

File: charging_cycle_65.csv
control/mA,Ewe/V
-0.01,-0.55103
-0.01,-0.554408
-0.01,-0.557137
-0.01,-0.5604952
-0.01,-0.5640446
-0.01,-0.5673459
-0.01,-0.5706281
-0.01,-0.573681
-0.01,-0.5765438
-0.01,-0.5795016
0.01,-0.308377
0.01,0.2078133
0.01,0.256264
0.01,0.285709
0.01,0.307463
0.01,0.325153
0.01,0.3401329
0.01,0.3530519
0.01,0.365131
0.01,0.376047
0.01,0.38658
0.01,0.396217
0.01,0.405243
0.01,0.413754
0.01,0.421902
0.01,0.4294782
0.01,0.436462
0.01,0.443313
0.01,0.450603
0.01,0.457205
0.01,0.463312
0.01,0.469609
0.01,0.4754103
0.01,0.4812687
0.01,0.486936
0.01,0.492718
0.01,0.4980424
0.01,0.503481
0.01,0.5085
0.01,0.513843
0.01,0.519129
0.01,0.5238995
0.01,0.528823
0.01,0.5335363
0.01,0.5388031
0.01,0.5432876
0.01,0.54823
0.01,0.5529434
0.01,0.5576187
0.01,0.5620268
0.01,0.5663967
0.01,0.571358
0.01,0.575805
0.01,0.5801554
0.01,0.584583
0.01,0.588838
0.01,0.5930553
0.01,0.597578
0.01,0.601833
0.01,0.6061079
0.01,0.6103061
0.01,0.614447
0.01,0.618416
0.01,0.6218702
0.01,0.6256677
0.01,0.6295224
0.01,0.633358
0.01,0.6371555
0.01,0.641239
0.01,0.6443115
0.01,0.6481471

File: charging_cycle_66.csv
control/mA,Ewe/V
-0.01,-0.552652
-0.01,-0.5552093
-0.01,-0.559121
-0.01,-0.5625371
-0.01,-0.56477
-0.01,-0.5690061
-0.01,-0.572613
-0.01,-0.5762194
-0.01,-0.5787192
-0.01,-0.5816198
0.01,-0.307736
0.01,0.211057
0.01,0.259566
0.01,0.289487
0.01,0.3113943
0.01,0.329103
0.01,0.3444265
0.01,0.358166
0.01,0.369978
0.01,0.3811798
0.01,0.391103
0.01,0.400472
0.01,0.408964
0.01,0.417265
0.01,0.425414
0.01,0.43339
0.01,0.44068
0.01,0.447836
0.01,0.4546292
0.01,0.461098
0.01,0.467262
0.01,0.473368
0.01,0.479456
0.01,0.485753
0.01,0.4909627
0.01,0.496516
0.01,0.5019353
0.01,0.507488
0.01,0.5130796
0.01,0.5180602
0.01,0.523289
0.01,0.528747
0.01,0.5336126
0.01,0.538765
0.01,0.543478
0.01,0.548364
0.01,0.5524854
0.01,0.5569317
0.01,0.561607
0.01,0.566225
0.01,0.570251
0.01,0.5751748
0.01,0.579468
0.01,0.58422
0.01,0.5887426
0.01,0.5931125
0.01,0.5977306
0.01,0.6021387
0.01,0.606566
0.01,0.6104969
0.01,0.614676
0.01,0.6187025
0.01,0.6227099
0.01,0.626431
0.01,0.6306864
0.01,0.634541
0.01,0.6386058
0.01,0.642117
0.01,0.6466205
0.01,0.6504943
0.01,0.654292

File: charging_cycle_67.csv
control/mA,Ewe/V
-0.01,-0.553721
-0.01,-0.5574229
-0.01,-0.560801
-0.01,-0.5641019
-0.01,-0.5677848
-0.01,-0.5705709
-0.01,-0.573624
-0.01,-0.577116
-0.01,-0.580093
-0.01,-0.583872
0.01,-0.308938
0.01,0.21205
0.01,0.2613785
0.01,0.290823
0.01,0.312539
0.01,0.329905
0.01,0.345037
0.01,0.358147
0.01,0.370188
0.01,0.3811989
0.01,0.391561
0.01,0.4006442
0.01,0.409346
0.01,0.4173034
0.01,0.4252609
0.01,0.432818
0.01,0.440107
0.01,0.448103
0.01,0.454114
0.01,0.46043
0.01,0.466651
0.01,0.4730822
0.01,0.4791696
0.01,0.485085
0.01,0.490619
0.01,0.496363
0.01,0.5017636
0.01,0.5070113
0.01,0.5120873
0.01,0.517221
0.01,0.5220103
0.01,0.52701
0.01,0.5322005
0.01,0.5370666
0.01,0.5416846
0.01,0.5463217
0.01,0.5512641
0.01,0.556187
0.01,0.5606338
0.01,0.5652136
0.01,0.5699461
0.01,0.5742588
0.01,0.5787814
0.01,0.582789
0.01,0.58714
0.01,0.591643
0.01,0.5965093
0.01,0.6008792
0.01,0.60502
0.01,0.6092565
0.01,0.613474
0.01,0.6174621
0.01,0.6213168
0.01,0.625515
0.01,0.62937
0.01,0.6336633
0.01,0.6376707
0.01,0.641201
0.01,0.645247
0.01,0.6491585
0.01,0.6532231

File: charging_cycle_68.csv
control/mA,Ewe/V
-0.01,-0.5580335
-0.01,-0.561106
-0.01,-0.56517
-0.01,-0.568033
-0.01,-0.57162
-0.01,-0.574712
-0.01,-0.5779368
-0.01,-0.581429
-0.01,-0.584291
-0.01,-0.5875736
0.01,-0.311743
0.01,0.211534
0.01,0.260692
0.01,0.290003
0.01,0.312196
0.01,0.3295229
0.01,0.344026
0.01,0.356888
0.01,0.368681
0.01,0.3794242
0.01,0.3898243
0.01,0.3989649
0.01,0.407552
0.01,0.416025
0.01,0.423811
0.01,0.431272
0.01,0.438352
0.01,0.4454886
0.01,0.452397
0.01,0.459095
0.01,0.4653537
0.01,0.4715174
0.01,0.477681
0.01,0.483444
0.01,0.488749
0.01,0.4944358
0.01,0.499874
0.01,0.505294
0.01,0.5105416
0.01,0.515828
0.01,0.5209799
0.01,0.525655
0.01,0.530693
0.01,0.5358453
0.01,0.5405015
0.01,0.5452531
0.01,0.5499665
0.01,0.5544509
0.01,0.5591262
0.01,0.563859
0.01,0.568286
0.01,0.572465
0.01,0.5773502
0.01,0.5818347
0.01,0.586166
0.01,0.5907272
0.01,0.595116
0.01,0.5994098
0.01,0.60357
0.01,0.6078444
0.01,0.612253
0.01,0.6167179
0.01,0.6207252
0.01,0.624771
0.01,0.629007
0.01,0.633396
0.01,0.63727
0.01,0.64101
0.01,0.645151
0.01,0.6489295
0.01,0.6530132

File: charging_cycle_69.csv
control/mA,Ewe/V
-0.01,-0.5624607
-0.01,-0.56517
-0.01,-0.569655
-0.01,-0.5729944
-0.01,-0.5764865
-0.01,-0.5799405
-0.01,-0.583223
-0.01,-0.585513
-0.01,-0.588757
-0.01,-0.5920962
0.01,-0.315671
0.01,0.2112291
0.01,0.2601572
0.01,0.2887622
0.01,0.3099631
0.01,0.327157
0.01,0.3419076
0.01,0.354426
0.01,0.3669441
0.01,0.377993
0.01,0.388069
0.01,0.39761
0.01,0.406693
0.01,0.415395
0.01,0.422895
0.01,0.430528
0.01,0.4374166
0.01,0.444668
0.01,0.451328
0.01,0.457205
0.01,0.463961
0.01,0.469991
0.01,0.475926
0.01,0.481669
0.01,0.487146
0.01,0.492585
0.01,0.498214
0.01,0.5035001
0.01,0.508939
0.01,0.5139765
0.01,0.5192242
0.01,0.5242239
0.01,0.529338
0.01,0.533994
0.01,0.5389558
0.01,0.5435929
0.01,0.548478
0.01,0.5531915
0.01,0.5581912
0.01,0.5623703
0.01,0.567255
0.01,0.571988
0.01,0.5767205
0.01,0.5810332
0.01,0.5857466
0.01,0.590536
0.01,0.5952689
0.01,0.599677
0.01,0.6038561
0.01,0.6076345
0.01,0.6122334
0.01,0.616527
0.01,0.620477
0.01,0.6246181
0.01,0.6286446
0.01,0.632747
0.01,0.636755
0.01,0.641144
0.01,0.645361
0.01,0.649693
0.01,0.6539101

File: charging_cycle_70.csv
control/mA,Ewe/V
-0.01,-0.566296
-0.01,-0.5696931
-0.01,-0.572975
-0.01,-0.576945
-0.01,-0.5796543
-0.01,-0.5829174
-0.01,-0.586142
-0.01,-0.589348
-0.01,-0.5931648
-0.01,-0.5958173
0.01,-0.318476
0.01,0.211992
0.01,0.261398
0.01,0.291357
0.01,0.312215
0.01,0.329561
0.01,0.3442929
0.01,0.357517
0.01,0.369139
0.01,0.380035
0.01,0.3898243
0.01,0.399289
0.01,0.4084872
0.01,0.4168645
0.01,0.424917
0.01,0.432093
0.01,0.439458
0.01,0.446443
0.01,0.4534461
0.01,0.459648
0.01,0.4659262
0.01,0.472395
0.01,0.478883
0.01,0.484799
0.01,0.490505
0.01,0.496439
0.01,0.5020498
0.01,0.507641
0.01,0.512374
0.01,0.517793
0.01,0.523289
0.01,0.5280977
0.01,0.532887
0.01,0.5376963
0.01,0.543497
0.01,0.5483063
0.01,0.553077
0.01,0.5580576
0.01,0.5632099
0.01,0.5679806
0.01,0.572923
0.01,0.577732
0.01,0.5822926
0.01,0.586567
0.01,0.5911661
0.01,0.5958986
0.01,0.6012036
0.01,0.605574
0.01,0.6104206
0.01,0.6150768
0.01,0.619943
0.01,0.6242937
0.01,0.628549
0.01,0.6331481
0.01,0.6373272
0.01,0.6417353
0.01,0.646277
0.01,0.650208
0.01,0.6546543
0.01,0.6586808
0.01,0.663451

File: charging_cycle_71.csv
control/mA,Ewe/V
-0.01,-0.5676894
-0.01,-0.5718876
-0.01,-0.5752271
-0.01,-0.5779559
-0.01,-0.5812572
-0.01,-0.585589
-0.01,-0.5895391
-0.01,-0.592363
-0.01,-0.595989
-0.01,-0.5991568
0.01,-0.319599
0.01,0.214359
0.01,0.264336
0.01,0.2937237
0.01,0.315535
0.01,0.3330532
0.01,0.348453
0.01,0.361391
0.01,0.3736994
0.01,0.385359
0.01,0.3951293
0.01,0.4044035
0.01,0.4131243
0.01,0.42175
0.01,0.429898
0.01,0.4375311
0.01,0.445088
0.01,0.45232
0.01,0.459228
0.01,0.46585
0.01,0.472281
0.01,0.479017
0.01,0.485295
0.01,0.4909627
0.01,0.496917
0.01,0.5028322
0.01,0.508366
0.01,0.513709
0.01,0.518919
0.01,0.524319
0.01,0.529815
0.01,0.53491
0.01,0.5402534
0.01,0.545577
0.01,0.5504436
0.01,0.555081
0.01,0.560462
0.01,0.5652136
0.01,0.5704041
0.01,0.5746595
0.01,0.57964
0.01,0.584831
0.01,0.589792
0.01,0.5942384
0.01,0.59067
0.01,0.591605
0.01,0.593857
0.01,0.5963375
0.01,0.5993526
0.01,0.603341
0.01,0.606909
0.01,0.610802
0.01,0.6145043
0.01,0.6182063
0.01,0.622385
0.01,0.626126
0.01,0.629885
0.01,0.6341022
0.01,0.637289
0.01,0.641239
0.01,0.6449412