Folder: Battery_Analysis1 (part 2)

File: charging_cycle_25.csv
control/mA,Ewe/V
-0.01,-2.123389
-0.01,-2.136976
-0.01,-2.14988
-0.01,-2.163291
-0.01,-2.176
-0.01,-2.18945
-0.01,-2.20228
-0.01,-2.21421
-0.01,-2.22635
-0.01,-2.23846
0.01,-0.935426
0.01,0.0692918
0.01,1.069341
0.01,1.174105
0.01,1.20905
0.01,1.2395
0.01,1.265683
0.01,1.28879
0.01,1.3094
0.01,1.32843
0.01,1.34614
0.01,1.36241
0.01,1.37856
0.01,1.39365
0.01,1.40817
0.01,1.42235
0.01,1.43586
0.01,1.44943
0.01,1.46227
0.01,1.47542
0.01,1.48832
0.01,1.50153
0.01,1.51462
0.01,1.52763
0.01,1.5408
0.01,1.554233
0.01,1.56732
0.01,1.58049
0.01,1.59427
0.01,1.60807
0.01,1.62135
0.01,1.63497
0.01,1.64829
0.01,1.66142
0.01,1.67484
0.01,1.68798
0.01,1.70151
0.01,1.7146
0.01,1.72802
0.01,1.74121
0.01,1.75443
0.01,1.76546
0.01,1.77754
0.01,1.7904
0.01,1.80259
0.01,1.8158
0.01,1.82797
0.01,1.8408
0.01,1.853927
0.01,1.86696
0.01,1.879975
0.01,1.89236
0.01,1.90543
0.01,1.91772
0.01,1.92969
0.01,1.94291
0.01,1.95501
0.01,1.96713
0.01,1.97909
0.01,1.99222
0.01,2.00439
0.01,2.01687
0.01,2.028267

File: charging_cycle_26.csv
control/mA,Ewe/V
-0.01,-2.130755
-0.01,-2.144132
-0.01,-2.156555
-0.01,-2.170447
-0.01,-2.18319
-0.01,-2.1964
-0.01,-2.20946
-0.01,-2.22173
-0.01,-2.23457
-0.01,-2.24621
0.01,-0.943201
0.01,0.06600959
0.01,1.06608
0.01,1.17514
0.01,1.20805
0.01,1.23803
0.01,1.26397
0.01,1.286674
0.01,1.30784
0.01,1.32684
0.01,1.34463
0.01,1.36098
0.01,1.37695
0.01,1.39159
0.01,1.40653
0.01,1.42067
0.01,1.43458
0.01,1.44766
0.01,1.4609
0.01,1.47428
0.01,1.48695
0.01,1.50031
0.01,1.51345
0.01,1.52614
0.01,1.53933
0.01,1.55234
0.01,1.56597
0.01,1.57935
0.01,1.59295
0.01,1.60677
0.01,1.62049
0.01,1.63392
0.01,1.64701
0.01,1.66052
0.01,1.6739
0.01,1.68762
0.01,1.70071
0.01,1.714337
0.01,1.72789
0.01,1.7408
0.01,1.75494
0.01,1.76811
0.01,1.78204
0.01,1.79597
0.01,1.80981
0.01,1.82261
0.01,1.83671
0.01,1.8504
0.01,1.863354
0.01,1.87761
0.01,1.891
0.01,1.90415
0.01,1.917568
0.01,1.93129
0.01,1.94436
0.01,1.95739
0.01,1.97001
0.01,1.98214
0.01,1.99327
0.01,2.0051
0.01,2.01716
0.01,2.02972
0.01,2.04172

File: charging_cycle_27.csv
control/mA,Ewe/V
-0.01,-2.13612
-0.01,-2.15041
-0.01,-2.16373
-0.01,-2.17751
-0.01,-2.190484
-0.01,-2.20349
-0.01,-2.21627
-0.01,-2.228598
-0.01,-2.24058
-0.01,-2.25352
0.01,-0.951938
0.01,0.0612007
0.01,1.06123
0.01,1.17598
0.01,1.207538
0.01,1.23652
0.01,1.26246
0.01,1.284804
0.01,1.306272
0.01,1.324954
0.01,1.34329
0.01,1.36016
0.01,1.37631
0.01,1.39123
0.01,1.405922
0.01,1.42052
0.01,1.434069
0.01,1.44756
0.01,1.46157
0.01,1.47477
0.01,1.488035
0.01,1.501202
0.01,1.515
0.01,1.52828
0.01,1.541562
0.01,1.55498
0.01,1.56912
0.01,1.58284
0.01,1.5966
0.01,1.61043
0.01,1.62453
0.01,1.63829
0.01,1.65199
0.01,1.6651
0.01,1.67898
0.01,1.69293
0.01,1.70663
0.01,1.72075
0.01,1.73498
0.01,1.74903
0.01,1.76241
0.01,1.77632
0.01,1.79029
0.01,1.8042
0.01,1.81761
0.01,1.83192
0.01,1.84563
0.01,1.858984
0.01,1.87259
0.01,1.886692
0.01,1.89973
0.01,1.91314
0.01,1.92625
0.01,1.93953
0.01,1.9535
0.01,1.9664
0.01,1.97959
0.01,1.99241
0.01,2.00516
0.01,2.017256
0.01,2.029679
0.01,2.04183
0.01,2.05365

File: charging_cycle_28.csv
control/mA,Ewe/V
-0.01,-2.14381
-0.01,-2.1581
-0.01,-2.171134
-0.01,-2.1855
-0.01,-2.199262
-0.01,-2.2123
-0.01,-2.22585
-0.01,-2.23804
-0.01,-2.251364
-0.01,-2.26325
0.01,-0.9611556
0.01,0.0590062
0.01,1.05934
0.01,1.17443
0.01,1.20489
0.01,1.23399
0.01,1.25984
0.01,1.28282
0.01,1.30404
0.01,1.32348
0.01,1.34146
0.01,1.35835
0.01,1.37468
0.01,1.39066
0.01,1.40539
0.01,1.42008
0.01,1.43415
0.01,1.44855
0.01,1.46269
0.01,1.47622
0.01,1.49008
0.01,1.5038
0.01,1.51771
0.01,1.5316
0.01,1.54515
0.01,1.55923
0.01,1.57309
0.01,1.58707
0.01,1.601081
0.01,1.615374
0.01,1.62972
0.01,1.643063
0.01,1.65713
0.01,1.671
0.01,1.684816
0.01,1.69859
0.01,1.71241
0.01,1.726817
0.01,1.74096
0.01,1.75508
0.01,1.76962
0.01,1.7841
0.01,1.797843
0.01,1.81175
0.01,1.82597
0.01,1.84013
0.01,1.85486
0.01,1.86898
0.01,1.882761
0.01,1.89675
0.01,1.91037
0.01,1.92392
0.01,1.93772
0.01,1.95108
0.01,1.96453
0.01,1.97783
0.01,1.99075
0.01,2.00365
0.01,2.016989
0.01,2.030099
0.01,2.04252
0.01,2.05498
0.01,2.06668

File: charging_cycle_29.csv
control/mA,Ewe/V
-0.01,-2.14751
-0.01,-2.16087
-0.01,-2.174359
-0.01,-2.18825
-0.01,-2.20257
-0.01,-2.21534
-0.01,-2.228598
-0.01,-2.240964
-0.01,-2.253444
-0.01,-2.26619
0.01,-0.9642816
0.01,0.05734603
0.01,1.05755
0.01,1.17487
0.01,1.20433
0.01,1.23317
0.01,1.25902
0.01,1.28169
0.01,1.30309
0.01,1.32266
0.01,1.34089
0.01,1.35841
0.01,1.37434
0.01,1.39041
0.01,1.405674
0.01,1.42062
0.01,1.43489
0.01,1.44914
0.01,1.462884
0.01,1.47657
0.01,1.49084
0.01,1.50452
0.01,1.51843
0.01,1.5324
0.01,1.54622
0.01,1.56055
0.01,1.57448
0.01,1.5887
0.01,1.60276
0.01,1.61705
0.01,1.63116
0.01,1.64573
0.01,1.65968
0.01,1.67346
0.01,1.68768
0.01,1.70209
0.01,1.71613
0.01,1.729813
0.01,1.74392
0.01,1.75895
0.01,1.773
0.01,1.78721
0.01,1.80156
0.01,1.816296
0.01,1.83095
0.01,1.84523
0.01,1.85937
0.01,1.87394
0.01,1.8881
0.01,1.90221
0.01,1.91572
0.01,1.93003
0.01,1.94394
0.01,1.95778
0.01,1.97186
0.01,1.98588
0.01,1.99567
0.01,2.00771
0.01,2.02008
0.01,2.0325
0.01,2.04504
0.01,2.057616
0.01,2.06977

File: charging_cycle_30.csv
control/mA,Ewe/V
-0.01,-2.1535
-0.01,-2.16705
-0.01,-2.18131
-0.01,-2.19487
-0.01,-2.20841
-0.01,-2.22232
-0.01,-2.23486
-0.01,-2.2477
-0.01,-2.26071
-0.01,-2.27356
0.01,-0.9724574
0.01,0.0551706
0.01,1.05537
0.01,1.17525
0.01,1.20345
0.01,1.23126
0.01,1.25698
0.01,1.2803
0.01,1.3015
0.01,1.32152
0.01,1.33982
0.01,1.35715
0.01,1.374
0.01,1.39005
0.01,1.405674
0.01,1.42069
0.01,1.43512
0.01,1.44955
0.01,1.46351
0.01,1.477444
0.01,1.4917
0.01,1.50525
0.01,1.51908
0.01,1.53347
0.01,1.54759
0.01,1.561637
0.01,1.57559
0.01,1.59009
0.01,1.60467
0.01,1.61877
0.01,1.63308
0.01,1.64697
0.01,1.66073
0.01,1.67447
0.01,1.68913
0.01,1.70331
0.01,1.71737
0.01,1.73123
0.01,1.745728
0.01,1.76025
0.01,1.77449
0.01,1.78914
0.01,1.8037
0.01,1.818376
0.01,1.833165
0.01,1.848145
0.01,1.86251
0.01,1.87711
0.01,1.89209
0.01,1.906519
0.01,1.92096
0.01,1.93518
0.01,1.94913
0.01,1.96352
0.01,1.97722
0.01,1.99123
0.01,2.00489
0.01,2.01842
0.01,2.03138
0.01,2.04422
0.01,2.05752
0.01,2.07036
0.01,2.08326

File: charging_cycle_31.csv
control/mA,Ewe/V
-0.01,-2.16062
-0.01,-2.174779
-0.01,-2.18903
-0.01,-2.20337
-0.01,-2.21709
-0.01,-2.23058
-0.01,-2.24436
-0.01,-2.257165
-0.01,-2.26995
-0.01,-2.283442
0.01,-0.983118
0.01,0.04885422
0.01,1.04915
0.01,1.17346
0.01,1.20109
0.01,1.22943
0.01,1.25467
0.01,1.27816
0.01,1.29984
0.01,1.31913
0.01,1.33795
0.01,1.35535
0.01,1.37264
0.01,1.38867
0.01,1.40428
0.01,1.41964
0.01,1.43479
0.01,1.449278
0.01,1.46388
0.01,1.47809
0.01,1.49237
0.01,1.50677
0.01,1.52099
0.01,1.53528
0.01,1.54992
0.01,1.56402
0.01,1.57853
0.01,1.59299
0.01,1.60807
0.01,1.62247
0.01,1.63711
0.01,1.65123
0.01,1.66552
0.01,1.68026
0.01,1.694739
0.01,1.7088
0.01,1.72376
0.01,1.73842
0.01,1.75328
0.01,1.76792
0.01,1.78267
0.01,1.79769
0.01,1.8124
0.01,1.82698
0.01,1.84215
0.01,1.85708
0.01,1.87219
0.01,1.88707
0.01,1.90184
0.01,1.91629
0.01,1.93089
0.01,1.94535
0.01,1.960485
0.01,1.97394
0.01,1.98812
0.01,2.002925
0.01,2.01668
0.01,2.03048
0.01,2.043762
0.01,2.05681
0.01,2.06971
0.01,2.08239
0.01,2.0958

File: charging_cycle_32.csv
control/mA,Ewe/V
-0.01,-2.17272
-0.01,-2.187698
-0.01,-2.20207
-0.01,-2.21709
-0.01,-2.23049
-0.01,-2.243788
-0.01,-2.2573
-0.01,-2.270752
-0.01,-2.28426
-0.01,-2.297296
0.01,-0.994179
0.01,0.0462781
0.01,1.04671
0.01,1.17888
0.01,1.20389
0.01,1.23187
0.01,1.25683
0.01,1.2795
0.01,1.30104
0.01,1.32077
0.01,1.33944
0.01,1.35738
0.01,1.37444
0.01,1.390694
0.01,1.40667
0.01,1.422066
0.01,1.43731
0.01,1.45239
0.01,1.4668
0.01,1.481795
0.01,1.495878
0.01,1.510648
0.01,1.52527
0.01,1.54011
0.01,1.55475
0.01,1.56937
0.01,1.58454
0.01,1.5991
0.01,1.61431
0.01,1.629228
0.01,1.64362
0.01,1.65827
0.01,1.67287
0.01,1.68777
0.01,1.70233
0.01,1.71661
0.01,1.7314
0.01,1.7459
0.01,1.76111
0.01,1.77578
0.01,1.79126
0.01,1.80647
0.01,1.82154
0.01,1.83679
0.01,1.85227
0.01,1.867285
0.01,1.88268
0.01,1.89797
0.01,1.91362
0.01,1.92869
0.01,1.94392
0.01,1.958653
0.01,1.9727
0.01,1.987239
0.01,2.00205
0.01,2.01647
0.01,2.030385
0.01,2.043953
0.01,2.05767
0.01,2.071928
0.01,2.08525
0.01,2.09872
0.01,2.11166

File: charging_cycle_33.csv
control/mA,Ewe/V
-0.01,-2.18159
-0.01,-2.196724
-0.01,-2.21095
-0.01,-2.225297
-0.01,-2.23909
-0.01,-2.252299
-0.01,-2.26562
-0.01,-2.27943
-0.01,-2.291991
-0.01,-2.30508
0.01,-1.00123
0.01,0.0445545
0.01,1.0452
0.01,1.18073
0.01,1.205
0.01,1.231506
0.01,1.25711
0.01,1.28024
0.01,1.301425
0.01,1.32127
0.01,1.34026
0.01,1.35864
0.01,1.37545
0.01,1.39201
0.01,1.408231
0.01,1.423917
0.01,1.43949
0.01,1.45445
0.01,1.46945
0.01,1.4841
0.01,1.498893
0.01,1.5133
0.01,1.5283
0.01,1.54336
0.01,1.55784
0.01,1.5729
0.01,1.58717
0.01,1.60257
0.01,1.61776
0.01,1.63322
0.01,1.648139
0.01,1.66268
0.01,1.67692
0.01,1.69155
0.01,1.70663
0.01,1.72136
0.01,1.736721
0.01,1.75208
0.01,1.76676
0.01,1.78202
0.01,1.79748
0.01,1.81273
0.01,1.82797
0.01,1.84339
0.01,1.85879
0.01,1.87457
0.01,1.889688
0.01,1.90497
0.01,1.92037
0.01,1.93539
0.01,1.95026
0.01,1.96535
0.01,1.97976
0.01,1.9943
0.01,2.00901
0.01,2.02332
0.01,2.03701
0.01,2.05147
0.01,2.06508
0.01,2.07872
0.01,2.092442
0.01,2.1062
0.01,2.11834

File: charging_cycle_34.csv
control/mA,Ewe/V
-0.01,-1.2831
-0.01,-1.276288
-0.01,-1.26886
-0.01,-1.26146
-0.01,-1.25461
-0.01,-1.24782
-0.01,-1.24102
-0.01,-1.22793
-0.01,-1.21999
-0.01,-1.21263
0.01,-0.514695
0.01,0.48541
0.01,0.5443371
0.01,0.5763961
0.01,0.6008029
0.01,0.620935
0.01,0.6381478
0.01,0.6524789
0.01,0.6648636
0.01,0.675951
0.01,0.6862553
0.01,0.695243
0.01,0.703544
0.01,0.7109865
0.01,0.717646
0.01,0.7235048
0.01,0.728409
0.01,0.7327599
0.01,0.73671
0.01,0.739935
0.01,0.7430455
0.01,0.74587
0.01,0.7481024
0.01,0.750259
0.01,0.7521861
0.01,0.753694
0.01,0.7550485
0.01,0.7562698
0.01,0.7577201
0.01,0.7581399
0.01,0.7586742
0.01,0.7591513
0.01,0.759552
0.01,0.7595902
0.01,0.7595329
0.01,0.759285
0.01,0.7589414
0.01,0.758522
0.01,0.7579109
0.01,0.7572812
0.01,0.756537
0.01,0.755793
0.01,0.7549531
0.01,0.754133
0.01,0.753121
0.01,0.7520907
0.01,0.7509267
0.01,0.7498771
0.01,0.748618
0.01,0.7473773
0.01,0.7462132
0.01,0.7449919
0.01,0.7434844
0.01,0.7423585
0.01,0.740756
0.01,0.7392671
0.01,0.737798
0.01,0.736672
0.01,0.7352979
0.01,0.7334469
0.01,0.73213
0.01,0.731443

File: charging_cycle_35.csv
control/mA,Ewe/V
-0.01,-0.6567294
-0.01,-0.656958
-0.01,-0.6574927
-0.01,-0.658046
-0.01,-0.6580843
-0.01,-0.6584277
-0.01,-0.658809
-0.01,-0.658943
-0.01,-0.6591911
-0.01,-0.6589048
0.01,-0.302766
0.01,0.2736296
0.01,0.315306
0.01,0.3428617
0.01,0.364769
0.01,0.382706
0.01,0.398431
0.01,0.4119221
0.01,0.423658
0.01,0.43381
0.01,0.44297
0.01,0.451175
0.01,0.458446
0.01,0.4651438
0.01,0.471308
0.01,0.477204
0.01,0.482452
0.01,0.487146
0.01,0.491421
0.01,0.495695
0.01,0.499455
0.01,0.5031566
0.01,0.5066487
0.01,0.509816
0.01,0.512908
0.01,0.515904
0.01,0.5185945
0.01,0.5212088
0.01,0.5234797
0.01,0.5259414
0.01,0.5280977
0.01,0.53014
0.01,0.532372
0.01,0.534586
0.01,0.536551
0.01,0.5385169
0.01,0.5402725
0.01,0.5421044
0.01,0.5436692
0.01,0.5454439
0.01,0.547028
0.01,0.548497
0.01,0.550119
0.01,0.551455
0.01,0.552695
0.01,0.55426
0.01,0.555539
0.01,0.5568363
0.01,0.5580194
0.01,0.5593552
0.01,0.560462
0.01,0.5615497
0.01,0.562828
0.01,0.5638778
0.01,0.564813
0.01,0.5659388
0.01,0.567026
0.01,0.5678661
0.01,0.568877
0.01,0.5699652
0.01,0.5708239

File: charging_cycle_36.csv
control/mA,Ewe/V
-0.01,-0.5661437
-0.01,-0.567861
-0.01,-0.5695595
-0.01,-0.571353
-0.01,-0.5729944
-0.01,-0.5741966
-0.01,-0.5758759
-0.01,-0.577345
-0.01,-0.5790627
-0.01,-0.580513
0.01,-0.279922
0.01,0.25968
0.01,0.29922
0.01,0.324714
0.01,0.344369
0.01,0.3603033
0.01,0.373871
0.01,0.3855116
0.01,0.3957972
0.01,0.405014
0.01,0.413048
0.01,0.4204139
0.01,0.426997
0.01,0.433047
0.01,0.4386188
0.01,0.443905
0.01,0.448599
0.01,0.4531026
0.01,0.4573008
0.01,0.46127
0.01,0.464991
0.01,0.468598
0.01,0.4719945
0.01,0.475353
0.01,0.478693
0.01,0.481841
0.01,0.484837
0.01,0.487661
0.01,0.490619
0.01,0.4932145
0.01,0.4959433
0.01,0.498519
0.01,0.5011147
0.01,0.5034047
0.01,0.505561
0.01,0.5078891
0.01,0.510408
0.01,0.512374
0.01,0.5145108
0.01,0.516629
0.01,0.51848
0.01,0.5204455
0.01,0.5222393
0.01,0.52409
0.01,0.525846
0.01,0.527945
0.01,0.529853
0.01,0.531552
0.01,0.5332691
0.01,0.53491
0.01,0.5367613
0.01,0.5382688
0.01,0.539757
0.01,0.541303
0.01,0.5430013
0.01,0.544528
0.01,0.5459019
0.01,0.547257
0.01,0.5488788
0.01,0.550176
0.01,0.551569

File: charging_cycle_37.csv
control/mA,Ewe/V
-0.01,-0.5269287
-0.01,-0.5287988
-0.01,-0.530707
-0.01,-0.532692
-0.01,-0.534314
-0.01,-0.536241
-0.01,-0.5381875
-0.01,-0.5400958
-0.01,-0.5420231
-0.01,-0.543683
0.01,-0.26317
0.01,0.255253
0.01,0.295594
0.01,0.321833
0.01,0.341621
0.01,0.3580325
0.01,0.371848
0.01,0.3837369
0.01,0.394061
0.01,0.4028387
0.01,0.4107962
0.01,0.4132388
0.01,0.418391
0.01,0.4244976
0.01,0.431825
0.01,0.4364434
0.01,0.4412904
0.01,0.44587
0.01,0.450202
0.01,0.454343
0.01,0.458369
0.01,0.462071
0.01,0.465754
0.01,0.469876
0.01,0.473597
0.01,0.476593
0.01,0.4799329
0.01,0.482948
0.01,0.4856768
0.01,0.488387
0.01,0.491173
0.01,0.494035
0.01,0.4966112
0.01,0.499416
0.01,0.502031
0.01,0.5046641
0.01,0.50703
0.01,0.509378
0.01,0.5119537
0.01,0.5141864
0.01,0.5163046
0.01,0.5186327
0.01,0.5205219
0.01,0.5227355
0.01,0.5247964
0.01,0.526781
0.01,0.528689
0.01,0.5303495
0.01,0.5323341
0.01,0.534338
0.01,0.5361124
0.01,0.537963
0.01,0.539643
0.01,0.541169
0.01,0.5428677
0.01,0.5445661
0.01,0.5461118
0.01,0.5478293
0.01,0.549146
0.01,0.5506344
0.01,0.5523137

File: charging_cycle_38.csv
control/mA,Ewe/V
-0.01,-0.497274
-0.01,-0.4987054
-0.01,-0.5000984
-0.01,-0.5021021
-0.01,-0.503457
-0.01,-0.505098
-0.01,-0.5065674
-0.01,-0.5081322
-0.01,-0.5096588
-0.01,-0.5111664
0.01,-0.2457763
0.01,0.2259228
0.01,0.264031
0.01,0.288819
0.01,0.308131
0.01,0.323932
0.01,0.337557
0.01,0.349522
0.01,0.3601125
0.01,0.368585
0.01,0.376543
0.01,0.383985
0.01,0.39074
0.01,0.3973429
0.01,0.403087
0.01,0.408869
0.01,0.414174
0.01,0.419135
0.01,0.423772
0.01,0.42841
0.01,0.432818
0.01,0.437016
0.01,0.440508
0.01,0.443618
0.01,0.446634
0.01,0.449591
0.01,0.447664
0.01,0.443065
0.01,0.4438093
0.01,0.4459275
0.01,0.448427
0.01,0.450984
0.01,0.453389
0.01,0.455755
0.01,0.4581023
0.01,0.4603922
0.01,0.462339
0.01,0.464132
0.01,0.4662506
0.01,0.468083
0.01,0.469953
0.01,0.472262
0.01,0.4743035
0.01,0.476422
0.01,0.478406
0.01,0.4802764
0.01,0.4823755
0.01,0.484379
0.01,0.486593
0.01,0.4885583
0.01,0.490371
0.01,0.49226
0.01,0.493901
0.01,0.495867
0.01,0.497794
0.01,0.499321
0.01,0.500809
0.01,0.5025078
0.01,0.5041298
0.01,0.5057709
0.01,0.507393

File: charging_cycle_39.csv
control/mA,Ewe/V
-0.01,-0.5146585
-0.01,-0.50548
-0.01,-0.5023883
-0.01,-0.5030944
-0.01,-0.503705
-0.01,-0.5042966
-0.01,-0.50548
-0.01,-0.507006
-0.01,-0.5083803
-0.01,-0.5101168
0.01,-0.249784
0.01,0.20976
0.01,0.247524
0.01,0.272542
0.01,0.291663
0.01,0.307635
0.01,0.321336
0.01,0.332996
0.01,0.343625
0.01,0.353224
0.01,0.361544
0.01,0.3692722
0.01,0.376485
0.01,0.383203
0.01,0.3895953
0.01,0.3954537
0.01,0.401064
0.01,0.406293
0.01,0.411502
0.01,0.416483
0.01,0.421044
0.01,0.425414
0.01,0.429555
0.01,0.433619
0.01,0.437455
0.01,0.441042
0.01,0.444687
0.01,0.448103
0.01,0.451404
0.01,0.4545147
0.01,0.45753
0.01,0.460659
0.01,0.4639225
0.01,0.466728
0.01,0.469437
0.01,0.4722235
0.01,0.4747615
0.01,0.477528
0.01,0.4802573
0.01,0.4823564
0.01,0.485104
0.01,0.487738
0.01,0.490142
0.01,0.493272
0.01,0.495237
0.01,0.497107
0.01,0.499073
0.01,0.5013056
0.01,0.5032902
0.01,0.5052748
0.01,0.5075456
0.01,0.5092249
0.01,0.5109805
0.01,0.512698
0.01,0.514473
0.01,0.5163237
0.01,0.5179648
0.01,0.5194532
0.01,0.5211707
0.01,0.52306
0.01,0.52451

File: charging_cycle_40.csv
control/mA,Ewe/V
-0.01,-0.462486
-0.01,-0.4639939
-0.01,-0.465807
-0.01,-0.4674097
-0.01,-0.468555
-0.01,-0.469795
-0.01,-0.471035
-0.01,-0.472428
-0.01,-0.4738406
-0.01,-0.4749283
0.01,-0.219726
0.01,0.226362
0.01,0.264069
0.01,0.2888958
0.01,0.3087609
0.01,0.3253438
0.01,0.339293
0.01,0.351812
0.01,0.362612
0.01,0.372612
0.01,0.38139
0.01,0.389614
0.01,0.397286
0.01,0.404098
0.01,0.410529
0.01,0.416502
0.01,0.422227
0.01,0.427627
0.01,0.433047
0.01,0.438008
0.01,0.4428361
0.01,0.446729
0.01,0.451061
0.01,0.4549727
0.01,0.45898
0.01,0.462644
0.01,0.466518
0.01,0.470258
0.01,0.4736356
0.01,0.4769369
0.01,0.480181
0.01,0.482986
0.01,0.486154
0.01,0.48894
0.01,0.491592
0.01,0.494226
0.01,0.496783
0.01,0.499321
0.01,0.5017254
0.01,0.504302
0.01,0.5064961
0.01,0.5087478
0.01,0.5107897
0.01,0.5127552
0.01,0.514797
0.01,0.5169725
0.01,0.518804
0.01,0.5206936
0.01,0.5225446
0.01,0.524472
0.01,0.526094
0.01,0.527831
0.01,0.5291854
0.01,0.5310555
0.01,0.532716
0.01,0.534452
0.01,0.5360743
0.01,0.5375055
0.01,0.5391466
0.01,0.5406732
0.01,0.542085

File: charging_cycle_41.csv
control/mA,Ewe/V
-0.01,-0.464624
-0.01,-0.466665
-0.01,-0.468345
-0.01,-0.470463
-0.01,-0.4722949
-0.01,-0.474146
-0.01,-0.475634
-0.01,-0.477027
-0.01,-0.47842
-0.01,-0.479756
0.01,-0.22686
0.01,0.224034
0.01,0.263764
0.01,0.290155
0.01,0.3107264
0.01,0.3279772
0.01,0.3421938
0.01,0.354636
0.01,0.365875
0.01,0.3762374
0.01,0.3851681
0.01,0.3934691
0.01,0.401045
0.01,0.407896
0.01,0.414727
0.01,0.420986
0.01,0.426902
0.01,0.432531
0.01,0.4379891
0.01,0.443275
0.01,0.44816
0.01,0.452874
0.01,0.457129
0.01,0.461633
0.01,0.4655827
0.01,0.469342
0.01,0.473349
0.01,0.4770705
0.01,0.480334
0.01,0.4836922
0.01,0.486974
0.01,0.490028
0.01,0.4929855
0.01,0.496001
0.01,0.4988248
0.01,0.5016872
0.01,0.504626
0.01,0.507736
0.01,0.5105035
0.01,0.513251
0.01,0.515828
0.01,0.5183083
0.01,0.5205219
0.01,0.5230217
0.01,0.525254
0.01,0.5274298
0.01,0.529567
0.01,0.531704
0.01,0.533651
0.01,0.5356163
0.01,0.537601
0.01,0.5396237
0.01,0.541551
0.01,0.5435166
0.01,0.5456729
0.01,0.5471041
0.01,0.548688
0.01,0.550482
0.01,0.5523709
0.01,0.5542219
0.01,0.555596

File: charging_cycle_42.csv
control/mA,Ewe/V
-0.01,-0.4629253
-0.01,-0.464585
-0.01,-0.466456
-0.01,-0.468288
-0.01,-0.469833
-0.01,-0.4717415
-0.01,-0.47344
-0.01,-0.4751
-0.01,-0.476741
-0.01,-0.478325
0.01,-0.226619
0.01,0.227965
0.01,0.268382
0.01,0.29546
0.01,0.316432
0.01,0.333969
0.01,0.348758
0.01,0.361735
0.01,0.373299
0.01,0.383641
0.01,0.392973
0.01,0.401598
0.01,0.409518
0.01,0.4171126
0.01,0.424097
0.01,0.4302415
0.01,0.4363289
0.01,0.442073
0.01,0.4477022
0.01,0.453198
0.01,0.4580641
0.01,0.462911
0.01,0.4674719
0.01,0.4718991
0.01,0.476155
0.01,0.480505
0.01,0.484398
0.01,0.4868027
0.01,0.490104
0.01,0.493463
0.01,0.496344
0.01,0.499626
0.01,0.5028704
0.01,0.5061335
0.01,0.508824
0.01,0.5118965
0.01,0.5147589
0.01,0.5175259
0.01,0.5206173
0.01,0.523174
0.01,0.5258269
0.01,0.5283649
0.01,0.53096
0.01,0.5337271
0.01,0.536036
0.01,0.538593
0.01,0.5406923
0.01,0.542925
0.01,0.5451577
0.01,0.547142
0.01,0.548917
0.01,0.5509588
0.01,0.5526572
0.01,0.55447
0.01,0.556359
0.01,0.558287
0.01,0.5599849
0.01,0.5615116
0.01,0.5631145
0.01,0.564794
0.01,0.566378

File: charging_cycle_43.csv
control/mA,Ewe/V
-0.01,-0.458803
-0.01,-0.460387
-0.01,-0.462276
-0.01,-0.4638794
-0.01,-0.465578
-0.01,-0.467333
-0.01,-0.469051
-0.01,-0.470482
-0.01,-0.4721804
-0.01,-0.473745
0.01,-0.223573
0.01,0.224682
0.01,0.265863
0.01,0.293876
0.01,0.315344
0.01,0.33332
0.01,0.348358
0.01,0.361162
0.01,0.3725926
0.01,0.383031
0.01,0.392515
0.01,0.4010831
0.01,0.408983
0.01,0.4161966
0.01,0.4231809
0.01,0.42965
0.01,0.435718
0.01,0.441767
0.01,0.446996
0.01,0.4523011
0.01,0.457415
0.01,0.462243
0.01,0.46688
0.01,0.471708
0.01,0.4759446
0.01,0.480238
0.01,0.484207
0.01,0.4882339
0.01,0.491936
0.01,0.496001
0.01,0.4994736
0.01,0.5031375
0.01,0.5066106
0.01,0.5098737
0.01,0.5131941
0.01,0.516476
0.01,0.5194914
0.01,0.5225637
0.01,0.5257696
0.01,0.528575
0.01,0.5315135
0.01,0.534338
0.01,0.537143
0.01,0.5398527
0.01,0.542696
0.01,0.5452149
0.01,0.548001
0.01,0.550291
0.01,0.5529625
0.01,0.5554051
0.01,0.557332
0.01,0.5594888
0.01,0.5614925
0.01,0.5636488
0.01,0.565481
0.01,0.5675608
0.01,0.569584
0.01,0.571435
0.01,0.573133
0.01,0.574812
0.01,0.5763579

File: charging_cycle_44.csv
control/mA,Ewe/V
-0.01,-0.462601
-0.01,-0.4647
-0.01,-0.466723
-0.01,-0.4687455
-0.01,-0.470883
-0.01,-0.472925
-0.01,-0.474871
-0.01,-0.4764549
-0.01,-0.473573
-0.01,-0.472428
0.01,-0.224535
0.01,0.22432
0.01,0.266378
0.01,0.29464
0.01,0.316566
0.01,0.334427
0.01,0.349808
0.01,0.362765
0.01,0.374558
0.01,0.384901
0.01,0.39448
0.01,0.4035066
0.01,0.4115786
0.01,0.419422
0.01,0.426578
0.01,0.433352
0.01,0.439783
0.01,0.445737
0.01,0.451366
0.01,0.4569
0.01,0.462091
0.01,0.467109
0.01,0.4719945
0.01,0.4767652
0.01,0.4813641
0.01,0.4856959
0.01,0.4900086
0.01,0.494035
0.01,0.4980424
0.01,0.5018208
0.01,0.5055992
0.01,0.509244
0.01,0.512851
0.01,0.516343
0.01,0.519625
0.01,0.5229645
0.01,0.5259414
0.01,0.528861
0.01,0.5322196
0.01,0.535311
0.01,0.538192
0.01,0.540864
0.01,0.5437074
0.01,0.546341
0.01,0.548593
0.01,0.551035
0.01,0.553573
0.01,0.555882
0.01,0.558096
0.01,0.5605193
0.01,0.5624848
0.01,0.564794
0.01,0.5669692
0.01,0.5686485
0.01,0.5705
0.01,0.572312
0.01,0.5739535
0.01,0.5760144
0.01,0.577961
0.01,0.5795447
0.01,0.5809569

File: charging_cycle_45.csv
control/mA,Ewe/V
-0.01,-0.458212
-0.01,-0.4603682
-0.01,-0.462906
-0.01,-0.4649862
-0.01,-0.467162
-0.01,-0.46949
-0.01,-0.47157
-0.01,-0.4736116
-0.01,-0.475787
-0.01,-0.477657
0.01,-0.230707
0.01,0.2174119
0.01,0.26134
0.01,0.2902316
0.01,0.3120622
0.01,0.33021
0.01,0.3456669
0.01,0.358968
0.01,0.371028
0.01,0.38179
0.01,0.391542
0.01,0.400396
0.01,0.40885
0.01,0.4165592
0.01,0.423792
0.01,0.430547
0.01,0.437092
0.01,0.443199
0.01,0.449
0.01,0.4544002
0.01,0.4599533
0.01,0.465067
0.01,0.4703534
0.01,0.4749523
0.01,0.47957
0.01,0.4841311
0.01,0.488635
0.01,0.49289
0.01,0.496897
0.01,0.500943
0.01,0.5047214
0.01,0.5086524
0.01,0.5121827
0.01,0.51577
0.01,0.519148
0.01,0.51827
0.01,0.5195677
0.01,0.521648
0.01,0.5240522
0.01,0.5263421
0.01,0.528823
0.01,0.5310937
0.01,0.5321051
0.01,0.533689
0.01,0.535769
0.01,0.5375246
0.01,0.5391466
0.01,0.5408259
0.01,0.5430395
0.01,0.545177
0.01,0.5473331
0.01,0.54926
0.01,0.5515122
0.01,0.5534205
0.01,0.5552143
0.01,0.557237
0.01,0.5591644
0.01,0.56092
0.01,0.562866
0.01,0.5644312
0.01,0.5662822

File: charging_cycle_46.csv
control/mA,Ewe/V
-0.01,-0.47199
-0.01,-0.4742795
-0.01,-0.476436
-0.01,-0.4788212
-0.01,-0.481073
-0.01,-0.483153
-0.01,-0.485157
-0.01,-0.487046
-0.01,-0.489202
-0.01,-0.491187
0.01,-0.244654
0.01,0.204836
0.01,0.248727
0.01,0.2763966
0.01,0.298189
0.01,0.315936
0.01,0.331221
0.01,0.3444456
0.01,0.356067
0.01,0.366448
0.01,0.376085
0.01,0.385149
0.01,0.393087
0.01,0.400682
0.01,0.4077239
0.01,0.4144601
0.01,0.420872
0.01,0.426864
0.01,0.432703
0.01,0.438161
0.01,0.443542
0.01,0.448599
0.01,0.453503
0.01,0.458007
0.01,0.462529
0.01,0.467033
0.01,0.471288
0.01,0.4752767
0.01,0.479532
0.01,0.48352
0.01,0.486936
0.01,0.4907719
0.01,0.4940732
0.01,0.497584
0.01,0.5010002
0.01,0.5044542
0.01,0.5077555
0.01,0.5109996
0.01,0.513805
0.01,0.516801
0.01,0.5196059
0.01,0.5225065
0.01,0.5254452
0.01,0.5283076
0.01,0.5310937
0.01,0.533994
0.01,0.536799
0.01,0.5393565
0.01,0.5416846
0.01,0.5440509
0.01,0.5467797
0.01,0.5492986
0.01,0.5516076
0.01,0.553898
0.01,0.5558249
0.01,0.55821
0.01,0.56008
0.01,0.5624848
0.01,0.564393
0.01,0.566454
0.01,0.568286

File: charging_cycle_47.csv
control/mA,Ewe/V
-0.01,-0.485252
-0.01,-0.487542
-0.01,-0.490004
-0.01,-0.492007
-0.01,-0.494221
-0.01,-0.49653
-0.01,-0.498629
-0.01,-0.500709
-0.01,-0.5029036
-0.01,-0.504793
0.01,-0.256196
0.01,0.200944
0.01,0.245425
0.01,0.2739731
0.01,0.295479
0.01,0.313474
0.01,0.3289695
0.01,0.3425373
0.01,0.354579
0.01,0.365036
0.01,0.3750161
0.01,0.383909
0.01,0.392057
0.01,0.4000908
0.01,0.4077239
0.01,0.414536
0.01,0.421082
0.01,0.4272646
0.01,0.433257
0.01,0.438981
0.01,0.444668
0.01,0.449591
0.01,0.454572
0.01,0.4592854
0.01,0.464018
0.01,0.468712
0.01,0.4732158
0.01,0.477471
0.01,0.4818221
0.01,0.4856768
0.01,0.4897796
0.01,0.4936534
0.01,0.497413
0.01,0.501267
0.01,0.504836
0.01,0.508023
0.01,0.5115339
0.01,0.5149879
0.01,0.5185373
0.01,0.5216096
0.01,0.5245674
0.01,0.527869
0.01,0.530807
0.01,0.533918
0.01,0.536799
0.01,0.5394901
0.01,0.5423525
0.01,0.5449859
0.01,0.547505
0.01,0.5503863
0.01,0.552562
0.01,0.5553287
0.01,0.557867
0.01,0.5598132
0.01,0.5622749
0.01,0.564508
0.01,0.566721
0.01,0.568877
0.01,0.571015
0.01,0.5730375
0.01,0.574812

File: charging_cycle_48.csv
control/mA,Ewe/V
-0.01,-0.491339
-0.01,-0.49403
-0.01,-0.4965681
-0.01,-0.498724
-0.01,-0.501167
-0.01,-0.5035333
-0.01,-0.5061095
-0.01,-0.507999
-0.01,-0.510098
-0.01,-0.5121205
0.01,-0.2618072
0.01,0.200276
0.01,0.245196
0.01,0.2736296
0.01,0.295537
0.01,0.313341
0.01,0.328912
0.01,0.342518
0.01,0.3547121
0.01,0.365666
0.01,0.375379
0.01,0.3846147
0.01,0.393164
0.01,0.4008541
0.01,0.408659
0.01,0.4156623
0.01,0.422379
0.01,0.4288103
0.01,0.434802
0.01,0.44068
0.01,0.4462519
0.01,0.4515569
0.01,0.4567283
0.01,0.461633
0.01,0.466747
0.01,0.47125
0.01,0.4758492
0.01,0.4803718
0.01,0.484322
0.01,0.488635
0.01,0.4926229
0.01,0.496516
0.01,0.5005423
0.01,0.5040344
0.01,0.507736
0.01,0.511286
0.01,0.514683
0.01,0.518156
0.01,0.5212852
0.01,0.5246628
0.01,0.5279641
0.01,0.5312845
0.01,0.5342614
0.01,0.537086
0.01,0.5398527
0.01,0.542849
0.01,0.5457683
0.01,0.5485353
0.01,0.55115
0.01,0.553783
0.01,0.55571
0.01,0.5580385
0.01,0.559966
0.01,0.5622176
0.01,0.5642976
0.01,0.566778
0.01,0.568992
0.01,0.5711674
0.01,0.572904
0.01,0.5749076
0.01,0.57714