Folder: Battery_Analysis1 (part 6)

File: charging_cycle_119.csv
control/mA,Ewe/V
-0.02,-1.751944
-0.02,-1.79356
-0.02,-1.83337
-0.02,-1.87312
-0.02,-1.91338
-0.02,-1.95142
-0.02,-1.98893
-0.02,-2.02633
-0.02,-2.064557
-0.02,-2.081407
0.02,-1.38213
0.02,-0.3819443
0.02,0.41738
0.02,0.4844746
0.02,0.517812
0.02,0.545005
0.02,0.5693164
0.02,0.593036
0.02,0.616851
0.02,0.641697
0.02,0.6671344
0.02,0.694117
0.02,0.7223789
0.02,0.7506213
0.02,0.777566
0.02,0.8021065
0.02,0.824548
0.02,0.846207
0.02,0.8679228
0.02,0.888876
0.02,0.9118131
0.02,0.933701
0.02,0.9578597
0.02,0.984518
0.02,1.01274
0.02,1.04364
0.02,1.07547
0.02,1.11136
0.02,1.14817
0.02,1.18796
0.02,1.22868
0.02,1.27368
0.02,1.32165
0.02,1.37148
0.02,1.426436
0.02,1.48317
0.02,1.542497
0.02,1.606615
0.02,1.67247
0.02,1.74151
0.02,1.81206
0.02,1.88496
0.02,1.95753
0.02,2.0276
0.02,2.094999
0.02,2.15864
0.02,2.21861
0.02,2.274317
0.02,2.32672
0.02,2.37591
0.02,2.42601
0.02,2.472434
0.02,2.518614
0.02,2.564718
0.02,2.6018
0.02,2.650113
0.02,2.69425
0.02,2.73572
0.02,2.77875
0.02,2.82039
0.02,2.86103
0.02,2.89928

File: charging_cycle_120.csv
control/mA,Ewe/V
-0.02,-1.8002
-0.02,-1.84406
-0.02,-1.88541
-0.02,-1.92537
-0.02,-1.96599
-0.02,-2.005038
-0.02,-2.04318
-0.02,-2.07992
-0.02,-2.11625
-0.02,-2.133789
0.02,-1.43166
0.02,-0.431655
0.02,0.411884
0.02,0.483769
0.02,0.516763
0.02,0.5425242
0.02,0.567026
0.02,0.5902692
0.02,0.6143134
0.02,0.6391973
0.02,0.6648636
0.02,0.6918275
0.02,0.7204134
0.02,0.7481215
0.02,0.775868
0.02,0.8004845
0.02,0.823842
0.02,0.845863
0.02,0.8673694
0.02,0.889124
0.02,0.9107444
0.02,0.9341017
0.02,0.9600542
0.02,0.986255
0.02,1.01578
0.02,1.04705
0.02,1.08035
0.02,1.114567
0.02,1.15222
0.02,1.19054
0.02,1.232212
0.02,1.27944
0.02,1.32644
0.02,1.37758
0.02,1.43142
0.02,1.49069
0.02,1.54975
0.02,1.609859
0.02,1.67993
0.02,1.75004
0.02,1.82088
0.02,1.89341
0.02,1.96642
0.02,2.031568
0.02,2.100972
0.02,2.16364
0.02,2.22503
0.02,2.280977
0.02,2.33532
0.02,2.38599
0.02,2.435051
0.02,2.48379
0.02,2.53167
0.02,2.57827
0.02,2.62365
0.02,2.66981
0.02,2.71326
0.02,2.75669
0.02,2.79934
0.02,2.83892
0.02,2.87838
0.02,2.91824

File: charging_cycle_121.csv
control/mA,Ewe/V
-0.02,-1.85083
-0.02,-1.89501
-0.02,-1.93802
-0.02,-1.9805
-0.02,-2.0203
-0.02,-2.06112
-0.02,-2.097761
-0.02,-2.13482
-0.02,-2.170867
-0.02,-2.18568
0.02,-1.47935
0.02,-0.479152
0.02,0.407113
0.02,0.482452
0.02,0.515999
0.02,0.542314
0.02,0.5669692
0.02,0.5902692
0.02,0.613951
0.02,0.6384149
0.02,0.664463
0.02,0.690053
0.02,0.7187341
0.02,0.747091
0.02,0.77436
0.02,0.7994731
0.02,0.8226777
0.02,0.845004
0.02,0.8666252
0.02,0.888761
0.02,0.911546
0.02,0.9342734
0.02,0.9595008
0.02,0.9866364
0.02,1.01589
0.02,1.046995
0.02,1.07936
0.02,1.11403
0.02,1.151244
0.02,1.19176
0.02,1.23555
0.02,1.28062
0.02,1.32993
0.02,1.38207
0.02,1.43537
0.02,1.49153
0.02,1.55318
0.02,1.61702
0.02,1.68552
0.02,1.75535
0.02,1.825074
0.02,1.89616
0.02,1.96966
0.02,2.04136
0.02,2.10899
0.02,2.17522
0.02,2.23411
0.02,2.28966
0.02,2.34324
0.02,2.394672
0.02,2.44509
0.02,2.491593
0.02,2.54138
0.02,2.58598
0.02,2.6321
0.02,2.67729
0.02,2.714403
0.02,2.76186
0.02,2.805103
0.02,2.850081
0.02,2.89145
0.02,2.93044

File: charging_cycle_122.csv
control/mA,Ewe/V
-0.02,-1.9043
-0.02,-1.94762
-0.02,-1.99042
-0.02,-2.03263
-0.02,-2.07232
-0.02,-2.11186
-0.02,-2.14684
-0.02,-2.18001
-0.02,-2.21501
-0.02,-2.232243
0.02,-1.52576
0.02,-0.5255799
0.02,0.3978963
0.02,0.478559
0.02,0.513728
0.02,0.540845
0.02,0.5644503
0.02,0.588571
0.02,0.6116991
0.02,0.6357433
0.02,0.6616577
0.02,0.688755
0.02,0.7180662
0.02,0.7470719
0.02,0.7744938
0.02,0.8012287
0.02,0.8240898
0.02,0.8466074
0.02,0.868667
0.02,0.89086
0.02,0.912767
0.02,0.9361054
0.02,0.9618289
0.02,0.989346
0.02,1.01879
0.02,1.04984
0.02,1.08306
0.02,1.118689
0.02,1.15649
0.02,1.19632
0.02,1.23872
0.02,1.286674
0.02,1.33553
0.02,1.38703
0.02,1.4393
0.02,1.498416
0.02,1.560263
0.02,1.62478
0.02,1.69417
0.02,1.76468
0.02,1.836619
0.02,1.9107
0.02,1.983079
0.02,2.053914
0.02,2.121524
0.02,2.18534
0.02,2.24529
0.02,2.30161
0.02,2.35477
0.02,2.404404
0.02,2.45587
0.02,2.50465
0.02,2.55117
0.02,2.59924
0.02,2.643606
0.02,2.68832
0.02,2.73165
0.02,2.77425
0.02,2.81699
0.02,2.85829
0.02,2.89821
0.02,2.93677

File: charging_cycle_123.csv
control/mA,Ewe/V
-0.02,-1.96533
-0.02,-2.00588
-0.02,-2.0487
-0.02,-2.09097
-0.02,-2.13001
-0.02,-2.16888
-0.02,-2.20137
-0.02,-2.235201
-0.02,-2.26699
-0.02,-2.28035
0.02,-1.57089
0.02,-0.5707869
0.02,0.390111
0.02,0.4761736
0.02,0.5136521
0.02,0.5407114
0.02,0.5643358
0.02,0.587464
0.02,0.610325
0.02,0.634751
0.02,0.6603028
0.02,0.6871522
0.02,0.7150511
0.02,0.74419
0.02,0.7720703
0.02,0.79829
0.02,0.8221815
0.02,0.844699
0.02,0.866453
0.02,0.8881505
0.02,0.9104009
0.02,0.933682
0.02,0.9598443
0.02,0.9870753
0.02,1.01662
0.02,1.047663
0.02,1.08045
0.02,1.11646
0.02,1.15542
0.02,1.19477
0.02,1.23773
0.02,1.28263
0.02,1.33148
0.02,1.38306
0.02,1.4397
0.02,1.49863
0.02,1.55994
0.02,1.62619
0.02,1.69346
0.02,1.76452
0.02,1.83698
0.02,1.9119
0.02,1.986094
0.02,2.05748
0.02,2.12717
0.02,2.18994
0.02,2.25111
0.02,2.306815
0.02,2.35912
0.02,2.41242
0.02,2.4585
0.02,2.510332
0.02,2.555711
0.02,2.60244
0.02,2.64769
0.02,2.69271
0.02,2.735623
0.02,2.767987
0.02,2.81777
0.02,2.847085
0.02,2.899639
0.02,2.9367

File: charging_cycle_124.csv
control/mA,Ewe/V
-0.02,-2.01914
-0.02,-2.0624
-0.02,-2.10475
-0.02,-2.14587
-0.02,-2.18094
-0.02,-2.2174
-0.02,-2.25064
-0.02,-2.28144
-0.02,-2.31096
-0.02,-2.3256
0.02,-1.61201
0.02,-0.6118529
0.02,0.379768
0.02,0.469819
0.02,0.509587
0.02,0.5372
0.02,0.561378
0.02,0.584296
0.02,0.6077299
0.02,0.6325374
0.02,0.6583182
0.02,0.685511
0.02,0.7139825
0.02,0.7424921
0.02,0.770811
0.02,0.797145
0.02,0.8217808
0.02,0.8447182
0.02,0.866663
0.02,0.888494
0.02,0.911336
0.02,0.9344643
0.02,0.9603023
0.02,0.9874951
0.02,1.01641
0.02,1.04854
0.02,1.08239
0.02,1.11798
0.02,1.15449
0.02,1.19403
0.02,1.23616
0.02,1.28223
0.02,1.33055
0.02,1.3823
0.02,1.43632
0.02,1.494981
0.02,1.55652
0.02,1.62026
0.02,1.68882
0.02,1.75966
0.02,1.82904
0.02,1.90482
0.02,1.97903
0.02,2.052292
0.02,2.12185
0.02,2.18675
0.02,2.24741
0.02,2.30468
0.02,2.358052
0.02,2.40816
0.02,2.4599
0.02,2.507069
0.02,2.555501
0.02,2.6009
0.02,2.6482
0.02,2.69009
0.02,2.73553
0.02,2.779303
0.02,2.82197
0.02,2.86374
0.02,2.90181
0.02,2.93998

File: charging_cycle_125.csv
control/mA,Ewe/V
-0.02,-2.072152
-0.02,-2.1152
-0.02,-2.15491
-0.02,-2.19151
-0.02,-2.22818
-0.02,-2.261
-0.02,-2.2901
-0.02,-2.3235
-0.02,-2.35017
-0.02,-2.364868
0.02,-1.648
0.02,-0.647957
0.02,0.352098
0.02,0.4558887
0.02,0.504187
0.02,0.5338416
0.02,0.5583057
0.02,0.581625
0.02,0.6051919
0.02,0.6293506
0.02,0.655265
0.02,0.682362
0.02,0.711063
0.02,0.7400877
0.02,0.7683873
0.02,0.7956947
0.02,0.8206549
0.02,0.843707
0.02,0.8656901
0.02,0.8879978
0.02,0.9105918
0.02,0.933682
0.02,0.9583749
0.02,0.9848999
0.02,1.01505
0.02,1.04465
0.02,1.07848
0.02,1.11388
0.02,1.15243
0.02,1.19248
0.02,1.2349
0.02,1.27896
0.02,1.32701
0.02,1.3776
0.02,1.43136
0.02,1.48922
0.02,1.55044
0.02,1.612836
0.02,1.6781
0.02,1.75029
0.02,1.82038
0.02,1.89595
0.02,1.97077
0.02,2.04281
0.02,2.113681
0.02,2.17875
0.02,2.23674
0.02,2.29634
0.02,2.35036
0.02,2.3987
0.02,2.45242
0.02,2.50247
0.02,2.5517
0.02,2.59785
0.02,2.64395
0.02,2.68923
0.02,2.729879
0.02,2.77402
0.02,2.81819
0.02,2.86075
0.02,2.902501
0.02,2.94183
0.02,2.94322

File: charging_cycle_126.csv
control/mA,Ewe/V
-0.02,-2.11982
-0.02,-2.159837
-0.02,-2.19886
-0.02,-2.23553
-0.02,-2.26879
-0.02,-2.30022
-0.02,-2.329584
-0.02,-2.360231
-0.02,-2.38697
-0.02,-2.39536
0.02,-1.67437
0.02,-0.67433
0.02,0.325687
0.02,0.442798
0.02,0.498844
0.02,0.5318761
0.02,0.557332
0.02,0.5813194
0.02,0.605211
0.02,0.6294651
0.02,0.655513
0.02,0.6830685
0.02,0.711235
0.02,0.740469
0.02,0.769055
0.02,0.7960573
0.02,0.8215518
0.02,0.845119
0.02,0.8673885
0.02,0.890059
0.02,0.9119657
0.02,0.9355711
0.02,0.960417
0.02,0.987648
0.02,1.01761
0.02,1.04835
0.02,1.08201
0.02,1.11691
0.02,1.15518
0.02,1.19399
0.02,1.23777
0.02,1.28377
0.02,1.33366
0.02,1.38398
0.02,1.44086
0.02,1.49878
0.02,1.56156
0.02,1.62843
0.02,1.69768
0.02,1.76573
0.02,1.83857
0.02,1.91085
0.02,1.9872
0.02,2.05973
0.02,2.127707
0.02,2.1915
0.02,2.25096
0.02,2.30353
0.02,2.361258
0.02,2.414079
0.02,2.4607
0.02,2.515313
0.02,2.56363
0.02,2.59998
0.02,2.649598
0.02,2.695988
0.02,2.74066
0.02,2.78083
0.02,2.82119
0.02,2.86596
0.02,2.90443
0.02,2.94777
0.02,2.94954

File: charging_cycle_127.csv
control/mA,Ewe/V
-0.02,-2.1648
-0.02,-2.20505
-0.02,-2.240525
-0.02,-2.27569
-0.02,-2.3067
-0.02,-2.33678
-0.02,-2.36597
-0.02,-2.39179
-0.02,-2.41874
-0.02,-2.42994
0.02,-1.70387
0.02,-0.7038507
0.02,0.296185
0.02,0.4277035
0.02,0.4913253
0.02,0.527697
0.02,0.5550616
0.02,0.579468
0.02,0.6039897
0.02,0.6291025
0.02,0.655933
0.02,0.684099
0.02,0.71446
0.02,0.7450301
0.02,0.7738259
0.02,0.8023355
0.02,0.8274865
0.02,0.8517216
0.02,0.875728
0.02,0.8979972
0.02,0.9208965
0.02,0.9453414
0.02,0.9710649
0.02,0.999975
0.02,1.02982
0.02,1.062891
0.02,1.094263
0.02,1.12537
0.02,1.17006
0.02,1.21263
0.02,1.25357
0.02,1.3008
0.02,1.34028
0.02,1.39058
0.02,1.44701
0.02,1.507194
0.02,1.56998
0.02,1.63795
0.02,1.70539
0.02,1.77784
0.02,1.85286
0.02,1.926346
0.02,2.00146
0.02,2.072806
0.02,2.14076
0.02,2.19936
0.02,2.25913
0.02,2.317234
0.02,2.37162
0.02,2.42158
0.02,2.469953
0.02,2.51942
0.02,2.566378
0.02,2.609028
0.02,2.65706
0.02,2.70177
0.02,2.74457
0.02,2.790562
0.02,2.833708
0.02,2.87611
0.02,2.91731
0.02,2.95996
0.02,2.96345

File: charging_cycle_128.csv
control/mA,Ewe/V
-0.02,-2.1948
-0.02,-2.23419
-0.02,-2.26879
-0.02,-2.301666
-0.02,-2.33338
-0.02,-2.36223
-0.02,-2.389141
-0.02,-2.41649
-0.02,-2.442172
-0.02,-2.452114
0.02,-1.72471
0.02,-0.72467
0.02,0.275347
0.02,0.417055
0.02,0.4852379
0.02,0.5252353
0.02,0.554012
0.02,0.5785524
0.02,0.603913
0.02,0.6293506
0.02,0.655704
0.02,0.683565
0.02,0.7127803
0.02,0.7434844
0.02,0.77354
0.02,0.801839
0.02,0.8275438
0.02,0.851855
0.02,0.875499
0.02,0.8982262
0.02,0.921488
0.02,0.945647
0.02,0.9726297
0.02,0.99988
0.02,1.02999
0.02,1.06119
0.02,1.09558
0.02,1.13153
0.02,1.17002
0.02,1.21137
0.02,1.25582
0.02,1.30389
0.02,1.3528
0.02,1.40607
0.02,1.46319
0.02,1.52504
0.02,1.58719
0.02,1.65516
0.02,1.72535
0.02,1.79683
0.02,1.873983
0.02,1.94705
0.02,2.021817
0.02,2.09441
0.02,2.16223
0.02,2.22432
0.02,2.28321
0.02,2.33624
0.02,2.38855
0.02,2.44141
0.02,2.48911
0.02,2.53415
0.02,2.58176
0.02,2.62742
0.02,2.67282
0.02,2.71683
0.02,2.76005
0.02,2.803271
0.02,2.845444
0.02,2.88855
0.02,2.92987
0.02,2.97045
0.02,2.97242

File: charging_cycle_129.csv
control/mA,Ewe/V
-0.02,-2.22053
-0.02,-2.25711
-0.02,-2.28911
-0.02,-2.32247
-0.02,-2.35214
-0.02,-2.38122
-0.02,-2.40967
-0.02,-2.43563
-0.02,-2.462648
-0.02,-2.47297
0.02,-1.74354
0.02,-0.743447
0.02,0.256665
0.02,0.4078
0.02,0.479131
0.02,0.5224874
0.02,0.551932
0.02,0.577522
0.02,0.602635
0.02,0.6281866
0.02,0.6551314
0.02,0.6834883
0.02,0.713505
0.02,0.744076
0.02,0.774303
0.02,0.8027935
0.02,0.828803
0.02,0.853305
0.02,0.8764719
0.02,0.899257
0.02,0.92311
0.02,0.9482992
0.02,0.9752631
0.02,1.00347
0.02,1.03255
0.02,1.06503
0.02,1.10024
0.02,1.13735
0.02,1.1762
0.02,1.21689
0.02,1.261523
0.02,1.30828
0.02,1.359093
0.02,1.41266
0.02,1.47071
0.02,1.52994
0.02,1.59526
0.02,1.66388
0.02,1.73348
0.02,1.80803
0.02,1.88421
0.02,1.95779
0.02,2.03351
0.02,2.10569
0.02,2.17251
0.02,2.23379
0.02,2.29155
0.02,2.345114
0.02,2.39652
0.02,2.44528
0.02,2.49247
0.02,2.54044
0.02,2.587312
0.02,2.632347
0.02,2.67664
0.02,2.71946
0.02,2.76295
0.02,2.80606
0.02,2.84792
0.02,2.8901
0.02,2.93134
0.02,2.97202
0.02,2.97261

File: charging_cycle_130.csv
control/mA,Ewe/V
-0.02,-2.24642
-0.02,-2.28111
-0.02,-2.3143
-0.02,-2.34535
-0.02,-2.37485
-0.02,-2.402518
-0.02,-2.42979
-0.02,-2.45521
-0.02,-2.4807
-0.02,-2.49192
0.02,-1.75974
0.02,-0.759649
0.02,0.240426
0.02,0.397725
0.02,0.470964
0.02,0.518213
0.02,0.5490887
0.02,0.575232
0.02,0.600421
0.02,0.6268508
0.02,0.6544253
0.02,0.683183
0.02,0.7127612
0.02,0.743618
0.02,0.773998
0.02,0.8027935
0.02,0.829891
0.02,0.855004
0.02,0.8795633
0.02,0.9033022
0.02,0.927976
0.02,0.9528409
0.02,0.980186
0.02,1.00759
0.02,1.03894
0.02,1.07491
0.02,1.10919
0.02,1.14495
0.02,1.18712
0.02,1.22744
0.02,1.27498
0.02,1.320126
0.02,1.37228
0.02,1.42418
0.02,1.483436
0.02,1.54519
0.02,1.61085
0.02,1.68027
0.02,1.752178
0.02,1.82679
0.02,1.90303
0.02,1.98004
0.02,2.05281
0.02,2.12418
0.02,2.18873
0.02,2.24909
0.02,2.30578
0.02,2.359445
0.02,2.41022
0.02,2.45866
0.02,2.506153
0.02,2.55424
0.02,2.59878
0.02,2.64229
0.02,2.68795
0.02,2.73093
0.02,2.773483
0.02,2.81524
0.02,2.85903
0.02,2.90128
0.02,2.94364
0.02,2.98446

File: charging_cycle_131.csv
control/mA,Ewe/V
-0.02,-2.27329
-0.02,-2.30754
-0.02,-2.34105
-0.02,-2.37071
-0.02,-2.39998
-0.02,-2.42719
-0.02,-2.45494
-0.02,-2.479078
-0.02,-2.50516
-0.02,-2.514591
0.02,-1.77889
0.02,-0.7788458
0.02,0.22119
0.02,0.388775
0.02,0.46501
0.02,0.516629
0.02,0.5503291
0.02,0.5771212
0.02,0.602921
0.02,0.6292934
0.02,0.6566008
0.02,0.6851485
0.02,0.715566
0.02,0.7461941
0.02,0.776555
0.02,0.8060757
0.02,0.832868
0.02,0.856702
0.02,0.8811281
0.02,0.906203
0.02,0.931163
0.02,0.9558369
0.02,0.983049
0.02,1.01293
0.02,1.04451
0.02,1.078806
0.02,1.11348
0.02,1.15185
0.02,1.19298
0.02,1.23639
0.02,1.28307
0.02,1.33156
0.02,1.3843
0.02,1.44029
0.02,1.50067
0.02,1.56438
0.02,1.63116
0.02,1.701
0.02,1.77408
0.02,1.84963
0.02,1.92686
0.02,2.000425
0.02,2.073283
0.02,2.1436
0.02,2.20633
0.02,2.2659
0.02,2.31748
0.02,2.368624
0.02,2.419823
0.02,2.46682
0.02,2.514397
0.02,2.559909
0.02,2.605784
0.02,2.64929
0.02,2.69156
0.02,2.735642
0.02,2.777624
0.02,2.81934
0.02,2.86355
0.02,2.90626
0.02,2.94828
0.02,2.986866

File: charging_cycle_132.csv
control/mA,Ewe/V
-0.02,-2.29836
-0.02,-2.33092
-0.02,-2.364448
-0.02,-2.39288
-0.02,-2.42086
-0.02,-2.448164
-0.02,-2.47566
-0.02,-2.502817
-0.02,-2.52623
-0.02,-2.53619
0.02,-1.797408
0.02,-0.7973942
0.02,0.202642
0.02,0.379405
0.02,0.457911
0.02,0.513175
0.02,0.5488788
0.02,0.5766823
0.02,0.602349
0.02,0.6288163
0.02,0.6559519
0.02,0.6843852
0.02,0.7142878
0.02,0.7459651
0.02,0.776402
0.02,0.8057895
0.02,0.8326961
0.02,0.858152
0.02,0.8829409
0.02,0.9071
0.02,0.9329758
0.02,0.9593863
0.02,0.9875524
0.02,1.01688
0.02,1.05072
0.02,1.08461
0.02,1.12151
0.02,1.16033
0.02,1.20174
0.02,1.24692
0.02,1.292876
0.02,1.34428
0.02,1.39529
0.02,1.45088
0.02,1.51095
0.02,1.57685
0.02,1.64344
0.02,1.71415
0.02,1.78796
0.02,1.86438
0.02,1.93839
0.02,2.0159
0.02,2.08269
0.02,2.150587
0.02,2.21264
0.02,2.27126
0.02,2.326203
0.02,2.3761
0.02,2.42364
0.02,2.47278
0.02,2.51764
0.02,2.56237
0.02,2.6062
0.02,2.65021
0.02,2.69366
0.02,2.736138
0.02,2.77909
0.02,2.81961
0.02,2.86331
0.02,2.90624
0.02,2.94748
0.02,2.98889

File: charging_cycle_133.csv
control/mA,Ewe/V
-0.02,-2.318955
-0.02,-2.35157
-0.02,-2.381966
-0.02,-2.40967
-0.02,-2.43929
-0.02,-2.46601
-0.02,-2.4937
-0.02,-2.51619
-0.02,-2.54314
-0.02,-2.55215
0.02,-1.80999
0.02,-0.8099316
0.02,0.190098
0.02,0.372211
0.02,0.452816
0.02,0.5107706
0.02,0.5493368
0.02,0.5779227
0.02,0.6045431
0.02,0.631278
0.02,0.6589289
0.02,0.6874957
0.02,0.7176082
0.02,0.748789
0.02,0.7799133
0.02,0.8090717
0.02,0.836608
0.02,0.86298
0.02,0.888017
0.02,0.912882
0.02,0.938338
0.02,0.9654546
0.02,0.994231
0.02,1.02383
0.02,1.05766
0.02,1.09285
0.02,1.13081
0.02,1.16806
0.02,1.2116
0.02,1.25492
0.02,1.30341
0.02,1.353082
0.02,1.40714
0.02,1.465
0.02,1.52538
0.02,1.59099
0.02,1.659894
0.02,1.73058
0.02,1.80502
0.02,1.88144
0.02,1.95722
0.02,2.03317
0.02,2.10412
0.02,2.16887
0.02,2.230656
0.02,2.28758
0.02,2.341221
0.02,2.39091
0.02,2.435032
0.02,2.48161
0.02,2.52743
0.02,2.569794
0.02,2.61542
0.02,2.65662
0.02,2.69954
0.02,2.74179
0.02,2.783673
0.02,2.82558
0.02,2.86802
0.02,2.90971
0.02,2.946029
0.02,2.98927

File: charging_cycle_134.csv
control/mA,Ewe/V
-0.02,-2.335576
-0.02,-2.36714
-0.02,-2.39471
-0.02,-2.421391
-0.02,-2.44763
-0.02,-2.47118
-0.02,-2.49282
-0.02,-2.50927
-0.02,-2.53171
-0.02,-2.53806
0.02,-1.808309
0.02,-0.8082332
0.02,0.162886
0.02,0.351315
0.02,0.4340771
0.02,0.492127
0.02,0.52846
0.02,0.5538594
0.02,0.577312
0.02,0.5997724
0.02,0.622557
0.02,0.646277
0.02,0.6711609
0.02,0.6971134
0.02,0.723009
0.02,0.7473582
0.02,0.7698949
0.02,0.790829
0.02,0.8103693
0.02,0.8281735
0.02,0.8463593
0.02,0.8643544
0.02,0.882559
0.02,0.9016802
0.02,0.922442
0.02,0.9441392
0.02,0.9681071
0.02,0.9923422
0.02,1.01826
0.02,1.0464
0.02,1.07694
0.02,1.10781
0.02,1.14172
0.02,1.17586
0.02,1.21301
0.02,1.25286
0.02,1.2956
0.02,1.339018
0.02,1.38728
0.02,1.4371
0.02,1.48857
0.02,1.54351
0.02,1.60034
0.02,1.65675
0.02,1.71909
0.02,1.78155
0.02,1.8415
0.02,1.904439
0.02,1.963271
0.02,2.018153
0.02,2.068455
0.02,2.11212
0.02,2.151961
0.02,2.19127
0.02,2.226572
0.02,2.25855
0.02,2.29143
0.02,2.322043
0.02,2.35183
0.02,2.38074
0.02,2.41057
0.02,2.43646

File: charging_cycle_135.csv
control/mA,Ewe/V
-0.04,-3.17107
-0.04,-3.20262
-0.04,-3.2375
-0.04,-3.266431
-0.04,-3.30095
-0.04,-3.33129
-0.04,-3.365623
-0.04,-3.400907
-0.04,-3.43631
-0.04,-3.45541
0.04,-2.38847
0.04,-1.38841
0.04,-0.388375
0.04,0.145941
0.04,0.351125
0.04,0.484837
0.04,0.5820637
0.04,0.6515629
0.04,0.70301
0.04,0.744553
0.04,0.786478
0.04,0.8307497
0.04,0.8783038
0.04,0.9207629
0.04,0.9599015
0.04,0.997132
0.04,1.03621
0.04,1.07816
0.04,1.12602
0.04,1.18046
0.04,1.23952
0.04,1.30562
0.04,1.37886
0.04,1.45834
0.04,1.54746
0.04,1.64407
0.04,1.74584
0.04,1.84952
0.04,1.9527
0.04,2.04472
0.04,2.125436
0.04,2.19471
0.04,2.25495
0.04,2.309143
0.04,2.35841
0.04,2.405549
0.04,2.45016
0.04,2.4936
0.04,2.537258
0.04,2.57815
0.04,2.62015
0.04,2.66391
0.04,2.70738
0.04,2.75077
0.04,2.794035
0.04,2.8397
0.04,2.884716
0.04,2.929179
0.04,2.97278
0.04,3.01461
0.04,3.05907
0.04,3.09821
0.04,3.1388
0.04,3.18304
0.04,3.22391
0.04,3.262287
0.04,3.30494
0.04,3.34715
0.04,3.3873
0.04,3.42852
0.04,3.46641
0.04,3.50094
0.04,3.52378

File: charging_cycle_136.csv
control/mA,Ewe/V
-0.04,-2.794401
-0.04,-2.82278
-0.04,-2.84913
-0.04,-2.87506
-0.04,-2.89397
-0.04,-2.91798
-0.04,-2.94494
-0.04,-2.96689
-0.04,-2.99282
-0.04,-3.00301
0.04,-2.15923
0.04,-1.15915
0.04,-0.159134
0.04,0.1446434
0.04,0.341736
0.04,0.4743035
0.04,0.5652136
0.04,0.629484
0.04,0.6795191
0.04,0.724001
0.04,0.7695323
0.04,0.8152545
0.04,0.8602134
0.04,0.9003253
0.04,0.9374221
0.04,0.975664
0.04,1.01589
0.04,1.06161
0.04,1.11394
0.04,1.17057
0.04,1.23175
0.04,1.30322
0.04,1.38155
0.04,1.46678
0.04,1.55946
0.04,1.65734
0.04,1.76075
0.04,1.86148
0.04,1.94774
0.04,2.0217
0.04,2.08935
0.04,2.145473
0.04,2.19413
0.04,2.237392
0.04,2.2751
0.04,2.31399
0.04,2.349942
0.04,2.38603
0.04,2.41999
0.04,2.45717
0.04,2.4926
0.04,2.5302
0.04,2.56785
0.04,2.60819
0.04,2.64929
0.04,2.69072
0.04,2.73652
0.04,2.78075
0.04,2.82774
0.04,2.87344
0.04,2.91845
0.04,2.96296
0.04,3.006693
0.04,3.04946
0.04,3.0897
0.04,3.13088
0.04,3.16953
0.04,3.20863
0.04,3.24694
0.04,3.285625
0.04,3.32232
0.04,3.35993
0.04,3.36921

File: charging_cycle_137.csv
control/mA,Ewe/V
-0.04,-2.65424
-0.04,-2.68147
-0.04,-2.70918
-0.04,-2.73383
-0.04,-2.76085
-0.04,-2.77335
-0.04,-2.77906
-0.04,-2.773925
-0.04,-2.78024
-0.04,-2.775757
0.04,-2.00685
0.04,-1.00685
0.04,-0.0496378
0.04,0.220522
0.04,0.4054912
0.04,0.5292999
0.04,0.6103824
0.04,0.6682794
0.04,0.7182761
0.04,0.7661737
0.04,0.8158079
0.04,0.8639536
0.04,0.9068516
0.04,0.946601
0.04,0.9865028
0.04,1.02824
0.04,1.07467
0.04,1.12735
0.04,1.18601
0.04,1.25189
0.04,1.3248
0.04,1.406
0.04,1.48916
0.04,1.5858
0.04,1.68848
0.04,1.79237
0.04,1.888066
0.04,1.970885
0.04,2.03872
0.04,2.09488
0.04,2.14276
0.04,2.18408
0.04,2.22197
0.04,2.25934
0.04,2.29594
0.04,2.33305
0.04,2.36916
0.04,2.40519
0.04,2.44398
0.04,2.482128
0.04,2.520675
0.04,2.560577
0.04,2.60138
0.04,2.64477
0.04,2.68933
0.04,2.73627
0.04,2.7844
0.04,2.83289
0.04,2.88088
0.04,2.928282
0.04,2.97565
0.04,3.020318
0.04,3.06518
0.04,3.10844
0.04,3.151588
0.04,3.19233
0.04,3.2321
0.04,3.27095
0.04,3.30933
0.04,3.34803
0.04,3.383844
0.04,3.41518

File: charging_cycle_138.csv
control/mA,Ewe/V
-0.04,-2.47185
-0.04,-2.4873
-0.04,-2.5041
-0.04,-2.5211
-0.04,-2.53829
-0.04,-2.55493
-0.04,-2.56901
-0.04,-2.58508
-0.04,-2.59686
-0.04,-2.605272
0.04,-1.88927
0.04,-0.8891249
0.04,0.002114539
0.04,0.285747
0.04,0.462835
0.04,0.578762
0.04,0.655685
0.04,0.716788
0.04,0.7732725
0.04,0.830845
0.04,0.8854789
0.04,0.931583
0.04,0.973965
0.04,1.01684
0.04,1.06281
0.04,1.11424
0.04,1.17057
0.04,1.23486
0.04,1.30339
0.04,1.38382
0.04,1.47157
0.04,1.56719
0.04,1.67264
0.04,1.782634
0.04,1.88221
0.04,1.9697
0.04,2.03725
0.04,2.094503
0.04,2.142477
0.04,2.18595
0.04,2.22518
0.04,2.263497
0.04,2.29657
0.04,2.33563
0.04,2.37578
0.04,2.417571
0.04,2.448237
0.04,2.49596
0.04,2.5388
0.04,2.582045
0.04,2.62681
0.04,2.67322
0.04,2.71992
0.04,2.76991
0.04,2.82006
0.04,2.869927
0.04,2.91981
0.04,2.96824
0.04,3.0174
0.04,3.06205
0.04,3.110331
0.04,3.15546
0.04,3.19832
0.04,3.24002
0.04,3.28106
0.04,3.320909
0.04,3.3593
0.04,3.39665
0.04,3.43317
0.04,3.470632
0.04,3.50687
0.04,3.5338

File: charging_cycle_139.csv
control/mA,Ewe/V
-0.04,-2.43954
-0.04,-2.4558
-0.04,-2.47339
-0.04,-2.48997
-0.04,-2.5061
-0.04,-2.52461
-0.04,-2.54148
-0.04,-2.55861
-0.04,-2.574129
-0.04,-2.58375
0.04,-1.88574
0.04,-0.885652
0.04,0.0212163
0.04,0.31378
0.04,0.488768
0.04,0.604581
0.04,0.6840799
0.04,0.7494764
0.04,0.8118196
0.04,0.872713
0.04,0.9247321
0.04,0.9715611
0.04,1.015127
0.04,1.06157
0.04,1.10875
0.04,1.16571
0.04,1.22586
0.04,1.29664
0.04,1.36905
0.04,1.45384
0.04,1.54813
0.04,1.6461
0.04,1.75485
0.04,1.8594
0.04,1.95022
0.04,2.02373
0.04,2.08187
0.04,2.13082
0.04,2.174364
0.04,2.216859
0.04,2.25714
0.04,2.29802
0.04,2.339122
0.04,2.3808
0.04,2.423563
0.04,2.46799
0.04,2.51335
0.04,2.560119
0.04,2.60748
0.04,2.65597
0.04,2.70553
0.04,2.75532
0.04,2.807603
0.04,2.86029
0.04,2.91158
0.04,2.96488
0.04,3.01528
0.04,3.06598
0.04,3.114434
0.04,3.160633
0.04,3.20695
0.04,3.25143
0.04,3.29305
0.04,3.33535
0.04,3.37703
0.04,3.41672
0.04,3.45731
0.04,3.495077
0.04,3.53406
0.04,3.56988
0.04,3.59908
0.04,3.62482

File: charging_cycle_140.csv
control/mA,Ewe/V
-0.04,-2.438966
-0.04,-2.45542
-0.04,-2.47343
-0.04,-2.49146
-0.04,-2.50869
-0.04,-2.52432
-0.04,-2.54222
-0.04,-2.55984
-0.04,-2.57775
-0.04,-2.58814
0.04,-1.90281
0.04,-0.9027308
0.04,0.0295173
0.04,0.335801
0.04,0.509129
0.04,0.6210687
0.04,0.698564
0.04,0.765544
0.04,0.832582
0.04,0.8955546
0.04,0.9504747
0.04,0.996445
0.04,1.04217
0.04,1.0909
0.04,1.142256
0.04,1.20044
0.04,1.26099
0.04,1.334419
0.04,1.41508
0.04,1.50273
0.04,1.6003
0.04,1.70436
0.04,1.81235
0.04,1.91165
0.04,1.99478
0.04,2.0584
0.04,2.10956
0.04,2.15421
0.04,2.19631
0.04,2.23745
0.04,2.27727
0.04,2.31659
0.04,2.35908
0.04,2.40112
0.04,2.447989
0.04,2.49331
0.04,2.54107
0.04,2.588972
0.04,2.6404
0.04,2.69219
0.04,2.746042
0.04,2.801191
0.04,2.858668
0.04,2.916947
0.04,2.97427
0.04,3.02938
0.04,3.08258
0.04,3.133593
0.04,3.18269
0.04,3.23227
0.04,3.27889
0.04,3.32421
0.04,3.36947
0.04,3.412964
0.04,3.4551
0.04,3.49788
0.04,3.53759
0.04,3.576732
0.04,3.61423
0.04,3.64816
0.04,3.68281
0.04,3.7092

File: charging_cycle_141.csv
control/mA,Ewe/V
-0.04,-2.45442
-0.04,-2.47274
-0.04,-2.491749
-0.04,-2.508828
-0.04,-2.52699
-0.04,-2.54314
-0.04,-2.56043
-0.04,-2.57768
-0.04,-2.59382
-0.04,-2.60355
0.04,-1.92598
0.04,-0.925878
0.04,0.04228367
0.04,0.3613338
0.04,0.532811
0.04,0.640495
0.04,0.718104
0.04,0.786172
0.04,0.8553091
0.04,0.919465
0.04,0.974194
0.04,1.02177
0.04,1.07054
0.04,1.1205
0.04,1.17452
0.04,1.23803
0.04,1.30805
0.04,1.38405
0.04,1.46979
0.04,1.56414
0.04,1.670752
0.04,1.77996
0.04,1.88217
0.04,1.96842
0.04,2.037064
0.04,2.08845
0.04,2.13286
0.04,2.17164
0.04,2.20617
0.04,2.24495
0.04,2.276
0.04,2.31886
0.04,2.36191
0.04,2.406732
0.04,2.45495
0.04,2.503844
0.04,2.55493
0.04,2.60702
0.04,2.660475
0.04,2.7162
0.04,2.775086
0.04,2.83621
0.04,2.89794
0.04,2.95912
0.04,3.01929
0.04,3.0765
0.04,3.13086
0.04,3.1838
0.04,3.23273
0.04,3.285644
0.04,3.33629
0.04,3.38335
0.04,3.43167
0.04,3.47748
0.04,3.52051
0.04,3.56274
0.04,3.60431
0.04,3.64243
0.04,3.67835
0.04,3.71636
0.04,3.75056
0.04,3.77846

File: charging_cycle_142.csv
control/mA,Ewe/V
-0.04,-2.46604
-0.04,-2.48522
-0.04,-2.504019
-0.04,-2.52301
-0.04,-2.541555
-0.04,-2.5601
-0.04,-2.57642
-0.04,-2.59512
-0.04,-2.6126
-0.04,-2.62695
0.04,-1.95291
0.04,-0.9528802
0.04,0.0471879
0.04,0.377955
0.04,0.5468942
0.04,0.6554749
0.04,0.732779
0.04,0.8035568
0.04,0.8745827
0.04,0.9396929
0.04,0.9951282
0.04,1.04417
0.04,1.09421
0.04,1.15023
0.04,1.2099
0.04,1.27746
0.04,1.353788
0.04,1.43508
0.04,1.52649
0.04,1.61843
0.04,1.723802
0.04,1.82944
0.04,1.92579
0.04,2.00243
0.04,2.06347
0.04,2.11118
0.04,2.15276
0.04,2.18925
0.04,2.225141
0.04,2.26098
0.04,2.29941
0.04,2.33943
0.04,2.38212
0.04,2.42778
0.04,2.476136
0.04,2.52728
0.04,2.579946
0.04,2.63567
0.04,2.6945
0.04,2.75514
0.04,2.82302
0.04,2.89151
0.04,2.95929
0.04,3.02169
0.04,3.08831
0.04,3.14991
0.04,3.210878
0.04,3.269691
0.04,3.3261
0.04,3.38192
0.04,3.43584
0.04,3.48649
0.04,3.5375
0.04,3.58385
0.04,3.63137
0.04,3.67323
0.04,3.715616
0.04,3.75456
0.04,3.79044
0.04,3.82698
0.04,3.860473
0.04,3.883544