Folder: Battery_Analysis1 (part 11)

File: charging_cycle_239.csv
control/mA,Ewe/V
-0.08,-6.478507
-0.08,-6.542377
-0.08,-6.607793
-0.08,-6.66615
-0.08,-6.72118
-0.08,-6.76824
-0.08,-6.806253
-0.08,-6.861612
-0.08,-6.90817
-0.08,-6.936073
0.08,-5.81307
0.08,-4.80432
0.08,-3.80376
0.08,-2.80317
0.08,-1.80306
0.08,-0.803024
0.08,0.1969873
0.08,0.618264
0.08,0.838516
0.08,0.941296
0.08,1.01954
0.08,1.10146
0.08,1.19319
0.08,1.29499
0.08,1.40955
0.08,1.54961
0.08,1.73197
0.08,1.94995
0.08,2.149633
0.08,2.30254
0.08,2.436215
0.08,2.577618
0.08,2.74057
0.08,2.9205
0.08,3.11106
0.08,3.31434
0.08,3.52008
0.08,3.716074
0.08,3.900871
0.08,4.07838
0.08,4.2478
0.08,4.41846
0.08,4.574443
0.08,4.717277
0.08,4.84131
0.08,4.946136
0.08,5.03569
0.08,5.114178
0.08,5.18507
0.08,5.24982
0.08,5.31039
0.08,5.365402
0.08,5.41622
0.08,5.46232
0.08,5.50312
0.08,5.538254
0.08,5.569053
0.08,5.596093
0.08,5.61915
0.08,5.640785
0.08,5.660345
0.08,5.67798
0.08,5.69326
0.08,5.70746
0.08,5.71519
0.08,5.72883
0.08,5.73799
0.08,5.74532
0.08,5.75625
0.08,5.762647
0.08,5.76936
0.08,5.7752
0.08,5.781329
0.08,5.78602
0.08,5.79171
0.08,5.795126

File: charging_cycle_240.csv
control/mA,Ewe/V
-0.08,-6.46658
-0.08,-6.524611
-0.08,-6.582775
-0.08,-6.64552
-0.08,-6.70534
-0.08,-6.759939
-0.08,-6.803868
-0.08,-6.84407
-0.08,-6.88592
-0.08,-6.908078
0.08,-5.81507
0.08,-4.707459
0.08,-3.68414
0.08,-2.683998
0.08,-1.683882
0.08,-0.683852
0.08,0.215313
0.08,0.5970054
0.08,0.8102548
0.08,0.916488
0.08,0.998888
0.08,1.084588
0.08,1.17901
0.08,1.28406
0.08,1.39995
0.08,1.53769
0.08,1.71999
0.08,1.93699
0.08,2.13815
0.08,2.29004
0.08,2.42314
0.08,2.56661
0.08,2.73444
0.08,2.92286
0.08,3.11148
0.08,3.30856
0.08,3.50956
0.08,3.69993
0.08,3.88272
0.08,4.05807
0.08,4.225649
0.08,4.393214
0.08,4.558146
0.08,4.705808
0.08,4.826907
0.08,4.935011
0.08,5.016933
0.08,5.09578
0.08,5.162553
0.08,5.228293
0.08,5.28743
0.08,5.340366
0.08,5.393034
0.08,5.441237
0.08,5.48454
0.08,5.52161
0.08,5.555676
0.08,5.585655
0.08,5.612695
0.08,5.63766
0.08,5.66128
0.08,5.68143
0.08,5.700667
0.08,5.71761
0.08,5.73215
0.08,5.744862
0.08,5.75895
0.08,5.76925
0.08,5.77887
0.08,5.78719
0.08,5.794897
0.08,5.80196
0.08,5.80888
0.08,5.81455
0.08,5.819934
0.08,5.822357

File: charging_cycle_241.csv
control/mA,Ewe/V
-0.08,-6.42446
-0.08,-6.467439
-0.08,-6.524344
-0.08,-6.576516
-0.08,-6.629833
-0.08,-6.683284
-0.08,-6.738261
-0.08,-6.789918
-0.08,-6.836747
-0.08,-6.86308
0.08,-5.77227
0.08,-4.68706
0.08,-3.67008
0.08,-2.6698
0.08,-1.66976
0.08,-0.6696545
0.08,0.166207
0.08,0.5594697
0.08,0.7852755
0.08,0.8957836
0.08,0.984518
0.08,1.07316
0.08,1.165995
0.08,1.273507
0.08,1.38905
0.08,1.52145
0.08,1.698212
0.08,1.91224
0.08,2.12112
0.08,2.27323
0.08,2.40709
0.08,2.54939
0.08,2.71797
0.08,2.90559
0.08,3.09749
0.08,3.296674
0.08,3.50115
0.08,3.6985
0.08,3.88854
0.08,4.06475
0.08,4.23328
0.08,4.40558
0.08,4.57398
0.08,4.725387
0.08,4.851543
0.08,4.95528
0.08,5.04258
0.08,5.118396
0.08,5.189975
0.08,5.250849
0.08,5.31193
0.08,5.36775
0.08,5.41803
0.08,5.464251
0.08,5.504573
0.08,5.53875
0.08,5.568691
0.08,5.597391
0.08,5.6231
0.08,5.64651
0.08,5.668474
0.08,5.68718
0.08,5.704235
0.08,5.719616
0.08,5.73368
0.08,5.746618
0.08,5.75824
0.08,5.76887
0.08,5.778276
0.08,5.786539
0.08,5.794
0.08,5.800908
0.08,5.807053
0.08,5.812873
0.08,5.81854
0.08,5.82079

File: charging_cycle_242.csv
control/mA,Ewe/V
-0.08,-6.43689
-0.08,-6.48982
-0.08,-6.545106
-0.08,-6.60615
-0.08,-6.669277
-0.08,-6.73114
-0.08,-6.78383
-0.08,-6.82906
-0.08,-6.86848
-0.08,-6.8973
0.08,-5.80778
0.08,-4.710264
0.08,-3.6883
0.08,-2.68797
0.08,-1.68795
0.08,-0.687898
0.08,0.169394
0.08,0.5573897
0.08,0.781822
0.08,0.8904404
0.08,0.976542
0.08,1.06785
0.08,1.16542
0.08,1.26824
0.08,1.38426
0.08,1.5158
0.08,1.69125
0.08,1.90805
0.08,2.113223
0.08,2.270367
0.08,2.404404
0.08,2.54596
0.08,2.71282
0.08,2.90092
0.08,3.09249
0.08,3.290472
0.08,3.49199
0.08,3.687488
0.08,3.86761
0.08,4.0433
0.08,4.21012
0.08,4.377738
0.08,4.540094
0.08,4.691878
0.08,4.81811
0.08,4.92387
0.08,5.01319
0.08,5.09168
0.08,5.162095
0.08,5.22703
0.08,5.287621
0.08,5.34355
0.08,5.39502
0.08,5.44414
0.08,5.487131
0.08,5.524953
0.08,5.55779
0.08,5.5873
0.08,5.61466
0.08,5.63899
0.08,5.66048
0.08,5.68105
0.08,5.698854
0.08,5.71412
0.08,5.728852
0.08,5.74118
0.08,5.75345
0.08,5.764842
0.08,5.77402
0.08,5.782589
0.08,5.78875
0.08,5.796405
0.08,5.802
0.08,5.808198
0.08,5.8132
0.08,5.814724

File: charging_cycle_243.csv
control/mA,Ewe/V
-0.08,-6.389868
-0.08,-6.44618
-0.08,-6.50421
-0.08,-6.563387
-0.08,-6.627257
-0.08,-6.69174
-0.08,-6.747535
-0.08,-6.79465
-0.08,-6.838751
-0.08,-6.863024
0.08,-5.78878
0.08,-4.72171
0.08,-3.70115
0.08,-2.70112
0.08,-1.70081
0.08,-0.7007975
0.08,0.167256
0.08,0.5453676
0.08,0.7737305
0.08,0.888761
0.08,0.9748433
0.08,1.06848
0.08,1.17015
0.08,1.27763
0.08,1.39363
0.08,1.52914
0.08,1.70529
0.08,1.92524
0.08,2.13002
0.08,2.28647
0.08,2.42555
0.08,2.5722
0.08,2.73585
0.08,2.927824
0.08,3.120235
0.08,3.319974
0.08,3.51967
0.08,3.70875
0.08,3.89116
0.08,4.066204
0.08,4.2342
0.08,4.378387
0.08,4.54998
0.08,4.69926
0.08,4.82279
0.08,4.92694
0.08,5.016074
0.08,5.095153
0.08,5.165721
0.08,5.2335
0.08,5.294567
0.08,5.34989
0.08,5.403663
0.08,5.451217
0.08,5.494516
0.08,5.531956
0.08,5.56459
0.08,5.59474
0.08,5.62243
0.08,5.64592
0.08,5.668417
0.08,5.68838
0.08,5.7059
0.08,5.72152
0.08,5.73542
0.08,5.74839
0.08,5.759594
0.08,5.769498
0.08,5.77816
0.08,5.78488
0.08,5.792321
0.08,5.79896
0.08,5.804572
0.08,5.80927
0.08,5.81345
0.08,5.81572

File: charging_cycle_244.csv
control/mA,Ewe/V
-0.08,-6.39853
-0.08,-6.45282
-0.08,-6.50862
-0.08,-6.565906
-0.08,-6.625807
-0.08,-6.68615
-0.08,-6.74315
-0.08,-6.79139
-0.08,-6.837396
-0.08,-6.861
0.08,-5.77997
0.08,-4.73158
0.08,-3.722995
0.08,-2.72256
0.08,-1.72252
0.08,-0.7224182
0.08,0.1627529
0.08,0.550482
0.08,0.7740549
0.08,0.88691
0.08,0.974366
0.08,1.06783
0.08,1.17212
0.08,1.27681
0.08,1.39493
0.08,1.52923
0.08,1.70983
0.08,1.92831
0.08,2.137191
0.08,2.29579
0.08,2.43589
0.08,2.58603
0.08,2.75799
0.08,2.9521
0.08,3.14615
0.08,3.34669
0.08,3.54841
0.08,3.73991
0.08,3.92215
0.08,4.09267
0.08,4.262173
0.08,4.433364
0.08,4.59614
0.08,4.737676
0.08,4.856352
0.08,4.955792
0.08,5.041607
0.08,5.11737
0.08,5.186483
0.08,5.25054
0.08,5.31014
0.08,5.365383
0.08,5.41796
0.08,5.4662
0.08,5.508828
0.08,5.546116
0.08,5.578709
0.08,5.60781
0.08,5.63487
0.08,5.660269
0.08,5.682901
0.08,5.702823
0.08,5.72038
0.08,5.73629
0.08,5.74977
0.08,5.762686
0.08,5.77383
0.08,5.784402
0.08,5.79339
0.08,5.79931
0.08,5.806919
0.08,5.81408
0.08,5.81959
0.08,5.82421
0.08,5.82633
0.08,5.82976

File: charging_cycle_245.csv
control/mA,Ewe/V
-0.08,-6.394772
-0.08,-6.452001
-0.08,-6.50433
-0.08,-6.566154
-0.08,-6.627734
-0.08,-6.688379
-0.08,-6.74948
-0.08,-6.80099
-0.08,-6.845964
-0.08,-6.871325
0.08,-5.788543
0.08,-4.75307
0.08,-3.752674
0.08,-2.75256
0.08,-1.75243
0.08,-0.7523972
0.08,0.1501583
0.08,0.54657
0.08,0.7741503
0.08,0.8906694
0.08,0.9805872
0.08,1.0736
0.08,1.17241
0.08,1.283659
0.08,1.400846
0.08,1.54408
0.08,1.72619
0.08,1.94837
0.08,2.149633
0.08,2.30548
0.08,2.44383
0.08,2.592884
0.08,2.76402
0.08,2.95492
0.08,3.14865
0.08,3.34898
0.08,3.549806
0.08,3.74008
0.08,3.91753
0.08,4.088645
0.08,4.258986
0.08,4.42848
0.08,4.59013
0.08,4.73302
0.08,4.85143
0.08,4.948731
0.08,5.034317
0.08,5.109637
0.08,5.17969
0.08,5.24406
0.08,5.30512
0.08,5.36193
0.08,5.41546
0.08,5.464995
0.08,5.509973
0.08,5.549856
0.08,5.58693
0.08,5.61804
0.08,5.64672
0.08,5.67136
0.08,5.694503
0.08,5.713681
0.08,5.731409
0.08,5.747935
0.08,5.760873
0.08,5.773448
0.08,5.78509
0.08,5.79536
0.08,5.804057
0.08,5.81156
0.08,5.817873
0.08,5.82453
0.08,5.830143
0.08,5.835505
0.08,5.818674
0.08,5.83604

File: charging_cycle_246.csv
control/mA,Ewe/V
-0.08,-6.38941
-0.08,-6.44641
-0.08,-6.51001
-0.08,-6.577947
-0.08,-6.64588
-0.08,-6.70708
-0.08,-6.76206
-0.08,-6.80887
-0.08,-6.85373
-0.08,-6.88459
0.08,-5.79447
0.08,-4.761921
0.08,-3.757731
0.08,-2.75672
0.08,-1.75666
0.08,-0.7566526
0.08,0.152067
0.08,0.5422189
0.08,0.7624717
0.08,0.8788572
0.08,0.966848
0.08,1.05778
0.08,1.15647
0.08,1.26717
0.08,1.38592
0.08,1.52595
0.08,1.70938
0.08,1.9323
0.08,2.14074
0.08,2.3005
0.08,2.44081
0.08,2.586396
0.08,2.754763
0.08,2.94523
0.08,3.14159
0.08,3.342587
0.08,3.54339
0.08,3.73327
0.08,3.901348
0.08,4.078226
0.08,4.248109
0.08,4.42077
0.08,4.58345
0.08,4.72527
0.08,4.84473
0.08,4.941823
0.08,5.03119
0.08,5.10519
0.08,5.17675
0.08,5.24224
0.08,5.303231
0.08,5.36212
0.08,5.41736
0.08,5.468125
0.08,5.51375
0.08,5.556611
0.08,5.59417
0.08,5.628
0.08,5.658227
0.08,5.684618
0.08,5.708472
0.08,5.729253
0.08,5.74807
0.08,5.76471
0.08,5.779555
0.08,5.792
0.08,5.803026
0.08,5.813255
0.08,5.822052
0.08,5.830181
0.08,5.83715
0.08,5.84316
0.08,5.84869
0.08,5.854206
0.08,5.85934
0.08,5.86104

File: charging_cycle_247.csv
control/mA,Ewe/V
-0.08,-6.367083
-0.08,-6.430056
-0.08,-6.49469
-0.08,-6.562433
-0.08,-6.630348
-0.08,-6.69517
-0.08,-6.75608
-0.08,-6.805394
-0.08,-6.859513
-0.08,-6.89085
0.08,-5.79968
0.08,-4.780355
0.08,-3.77468
0.08,-2.77466
0.08,-1.7746
0.08,-0.7745904
0.08,0.127812
0.08,0.5234224
0.08,0.7557164
0.08,0.8759376
0.08,0.966237
0.08,1.05776
0.08,1.15626
0.08,1.26425
0.08,1.38365
0.08,1.52366
0.08,1.7076
0.08,1.930735
0.08,2.1433
0.08,2.304926
0.08,2.44446
0.08,2.58954
0.08,2.7573
0.08,2.94445
0.08,3.14187
0.08,3.34016
0.08,3.54246
0.08,3.73373
0.08,3.91276
0.08,4.08605
0.08,4.251849
0.08,4.4247
0.08,4.586961
0.08,4.730959
0.08,4.8508
0.08,4.949781
0.08,5.03569
0.08,5.11328
0.08,5.18326
0.08,5.24934
0.08,5.31157
0.08,5.36867
0.08,5.42696
0.08,5.47889
0.08,5.527014
0.08,5.56995
0.08,5.608421
0.08,5.64246
0.08,5.67179
0.08,5.698148
0.08,5.72166
0.08,5.743088
0.08,5.76196
0.08,5.779536
0.08,5.7941
0.08,5.80679
0.08,5.817835
0.08,5.82848
0.08,5.837032
0.08,5.844207
0.08,5.851783
0.08,5.856954
0.08,5.863137
0.08,5.86858
0.08,5.87298
0.08,5.87545

File: charging_cycle_248.csv
control/mA,Ewe/V
-0.08,-6.41626
-0.08,-6.48019
-0.08,-6.544915
-0.08,-6.611323
-0.08,-6.67874
-0.08,-6.74265
-0.08,-6.797227
-0.08,-6.84885
-0.08,-6.902334
-0.08,-6.937924
0.08,-5.84241
0.08,-4.80524
0.08,-3.79385
0.08,-2.79384
0.08,-1.79384
0.08,-0.7937494
0.08,0.1197786
0.08,0.514358
0.08,0.7471483
0.08,0.8655756
0.08,0.9524402
0.08,1.045354
0.08,1.14304
0.08,1.2528
0.08,1.37243
0.08,1.51271
0.08,1.694758
0.08,1.91867
0.08,2.13383
0.08,2.2972
0.08,2.43536
0.08,2.57962
0.08,2.74295
0.08,2.92658
0.08,3.12346
0.08,3.32129
0.08,3.52378
0.08,3.71649
0.08,3.89637
0.08,4.069009
0.08,4.238873
0.08,4.409988
0.08,4.57437
0.08,4.71772
0.08,4.8388
0.08,4.94001
0.08,5.027791
0.08,5.104828
0.08,5.17519
0.08,5.24089
0.08,5.302754
0.08,5.361128
0.08,5.41687
0.08,5.469117
0.08,5.51722
0.08,5.56131
0.08,5.60121
0.08,5.636148
0.08,5.666127
0.08,5.693148
0.08,5.71376
0.08,5.73799
0.08,5.75616
0.08,5.77156
0.08,5.78547
0.08,5.797874
0.08,5.80854
0.08,5.81858
0.08,5.82749
0.08,5.83596
0.08,5.822338
0.08,5.84453
0.08,5.84711
0.08,5.85501
0.08,5.860904
0.08,5.86209

File: charging_cycle_249.csv
control/mA,Ewe/V
-0.08,-6.4778
-0.08,-6.547014
-0.08,-6.609491
-0.08,-6.6859
-0.08,-6.752993
-0.08,-6.81236
-0.08,-6.869493
-0.08,-6.92638
-0.08,-6.98655
-0.08,-7.02175
0.08,-5.92753
0.08,-4.84714
0.08,-3.841657
0.08,-2.841488
0.08,-1.84134
0.08,-0.841342
0.08,0.05434395
0.08,0.473311
0.08,0.7311379
0.08,0.857923
0.08,0.947078
0.08,1.03806
0.08,1.13699
0.08,1.2442
0.08,1.3657
0.08,1.5037
0.08,1.68268
0.08,1.90629
0.08,2.12294
0.08,2.288152
0.08,2.430471
0.08,2.57983
0.08,2.75192
0.08,2.940266
0.08,3.13718
0.08,3.336
0.08,3.53542
0.08,3.7193
0.08,3.90335
0.08,4.07813
0.08,4.256601
0.08,4.4385
0.08,4.60761
0.08,4.75092
0.08,4.866065
0.08,4.959055
0.08,5.0409
0.08,5.11467
0.08,5.178392
0.08,5.2432
0.08,5.303002
0.08,5.359754
0.08,5.41341
0.08,5.464079
0.08,5.51171
0.08,5.553577
0.08,5.592811
0.08,5.629927
0.08,5.661108
0.08,5.68626
0.08,5.710246
0.08,5.73152
0.08,5.75066
0.08,5.765567
0.08,5.78228
0.08,5.79568
0.08,5.80742
0.08,5.81854
0.08,5.82839
0.08,5.836841
0.08,5.844856
0.08,5.849
0.08,5.857565
0.08,5.863309
0.08,5.86741
0.08,5.870255

File: charging_cycle_250.csv
control/mA,Ewe/V
-0.08,-6.520413
-0.08,-6.58835
-0.08,-6.656816
-0.08,-6.72513
-0.08,-6.79599
-0.08,-6.864455
-0.08,-6.923173
-0.08,-6.98256
-0.08,-7.041524
-0.08,-7.080319
0.08,-5.9656
0.08,-4.965152
0.08,-3.964855
0.08,-2.96142
0.08,-1.9613
0.08,-0.9612766
0.08,-0.00694975
0.08,0.405758
0.08,0.693888
0.08,0.831971
0.08,0.9181485
0.08,1.00746
0.08,1.10468
0.08,1.20571
0.08,1.32377
0.08,1.45433
0.08,1.61324
0.08,1.82538
0.08,2.06097
0.08,2.2469
0.08,2.39152
0.08,2.53836
0.08,2.70526
0.08,2.88659
0.08,3.07982
0.08,3.27505
0.08,3.47391
0.08,3.66732
0.08,3.84337
0.08,4.017562
0.08,4.191463
0.08,4.368101
0.08,4.54464
0.08,4.70224
0.08,4.829254
0.08,4.93383
0.08,5.02123
0.08,5.096565
0.08,5.16429
0.08,5.226499
0.08,5.284129
0.08,5.337122
0.08,5.38807
0.08,5.435627
0.08,5.47971
0.08,5.518446
0.08,5.554035
0.08,5.5873
0.08,5.61525
0.08,5.637923
0.08,5.65651
0.08,5.672863
0.08,5.68032
0.08,5.694522
0.08,5.70586
0.08,5.71582
0.08,5.723337
0.08,5.73002
0.08,5.735359
0.08,5.740359
0.08,5.74387
0.08,5.74689
0.08,5.748793
0.08,5.7504
0.08,5.75106
0.08,5.75177

File: charging_cycle_251.csv
control/mA,Ewe/V
-0.08,-5.880411
-0.08,-5.91423
-0.08,-5.949338
-0.08,-5.982446
-0.08,-6.01454
-0.08,-6.047862
-0.08,-6.079024
-0.08,-6.10931
-0.08,-6.13894
-0.08,-6.15637
0.08,-5.243893
0.08,-4.22894
0.08,-3.2285
0.08,-2.22844
0.08,-1.22843
0.08,-0.228271
0.08,0.262905
0.08,0.5649846
0.08,0.7637884
0.08,0.8800213
0.08,0.8996383

File: charging_cycle_252.csv
control/mA,Ewe/V
0.08,-1.22843
0.08,-0.228271
0.08,0.262905
0.08,0.5649846
0.08,0.7637884
0.08,0.8800213
0.08,0.8996383
0.0,0.899543
0.0,-0.541756
0.0,-0.541813
0.08,-0.5422903
0.08,0.4577397
0.08,0.9661225
0.08,1.05329
0.08,1.12745
0.08,1.1995
0.08,1.27902
0.08,1.3802
0.08,1.51246
0.08,1.68006
0.08,1.861312
0.08,2.024603
0.08,2.14883
0.08,2.2606
0.08,2.37805
0.08,2.51127
0.08,2.66168
0.08,2.82325
0.08,2.98843
0.08,3.15489
0.08,3.32377
0.08,3.48721
0.08,3.63782
0.08,3.77695
0.08,3.90768
0.08,4.035137
0.08,4.16442
0.08,4.28927
0.08,4.407755
0.08,4.517118
0.08,4.61381
0.08,4.69873
0.08,4.775708
0.08,4.843299
0.08,4.90473
0.08,4.960849
0.08,5.01361
0.08,5.0638
0.08,5.11044
0.08,5.15523
0.08,5.19662
0.08,5.237338
0.08,5.27573
0.08,5.31188
0.08,5.344564
0.08,5.37124
0.08,5.393473
0.08,5.409674
0.08,5.426219
0.08,5.43879
0.08,5.449519
0.08,5.458812
0.08,5.464747

File: charging_cycle_253.csv
control/mA,Ewe/V
-0.08,-5.52049
-0.08,-5.5462
-0.08,-5.56906
-0.08,-5.594819
-0.08,-5.617718
-0.08,-5.641877
-0.08,-5.664356
-0.08,-5.68561
-0.08,-5.706472
-0.08,-5.718857
0.08,-4.91237
0.08,-3.90201
0.08,-2.9016
0.08,-1.90143
0.08,-0.9013187
0.08,0.05258834
0.08,0.430604
0.08,0.707189
0.08,0.8478669
0.08,0.935247
0.08,1.00081
0.08,1.06274
0.08,1.11831
0.08,1.18716
0.08,1.26105
0.08,1.35957
0.08,1.48491
0.08,1.63885
0.08,1.80298
0.08,1.94743
0.08,2.06399
0.08,2.16637
0.08,2.27025
0.08,2.37967
0.08,2.50508
0.08,2.64448
0.08,2.79602
0.08,2.95488
0.08,3.11531
0.08,3.28209
0.08,3.44432
0.08,3.59484
0.08,3.731989
0.08,3.85855
0.08,3.97852
0.08,4.09754
0.08,4.210516
0.08,4.32454
0.08,4.42825
0.08,4.52878
0.08,4.618791
0.08,4.70169
0.08,4.7755
0.08,4.8417
0.08,4.90045
0.08,4.959
0.08,5.01315
0.08,5.061548
0.08,5.1062
0.08,5.149348
0.08,5.19102
0.08,5.229648
0.08,5.26442
0.08,5.29621
0.08,5.32298
0.08,5.344068
0.08,5.361624
0.08,5.375974
0.08,5.38824
0.08,5.3978
0.08,5.40622
0.08,5.41288
0.08,5.419349
0.08,5.425704
0.08,5.42839

File: charging_cycle_254.csv
control/mA,Ewe/V
-0.08,-5.413
-0.08,-5.44405
-0.08,-5.47204
-0.08,-5.49671
-0.08,-5.519538
-0.08,-5.54141
-0.08,-5.560222
-0.08,-5.578828
-0.08,-5.595334
-0.08,-5.599418
0.08,-4.804566
0.08,-3.80156
0.08,-2.8009
0.08,-1.8009
0.08,-0.8008482
0.08,0.11829
0.08,0.5149306
0.08,0.754133
0.08,0.875098
0.08,0.9553598
0.08,1.01705
0.08,1.07644
0.08,1.14447
0.08,1.21634
0.08,1.30427
0.08,1.41397
0.08,1.56011
0.08,1.72735
0.08,1.89436
0.08,2.02886
0.08,2.13687
0.08,2.23527
0.08,2.339809
0.08,2.45392
0.08,2.58277
0.08,2.725051
0.08,2.88161
0.08,3.04327
0.08,3.20632
0.08,3.36898
0.08,3.52588
0.08,3.6707
0.08,3.80431
0.08,3.92833
0.08,4.045976
0.08,4.16173
0.08,4.273203
0.08,4.38016
0.08,4.48214
0.08,4.575874
0.08,4.66343
0.08,4.74254
0.08,4.8141
0.08,4.879232
0.08,4.93812
0.08,4.99312
0.08,5.04434
0.08,5.092214
0.08,5.138528
0.08,5.180529
0.08,5.21971
0.08,5.25255
0.08,5.282889
0.08,5.308727
0.08,5.330691
0.08,5.349621
0.08,5.36618
0.08,5.37851
0.08,5.388874
0.08,5.39889
0.08,5.40502
0.08,5.413243
0.08,5.41973
0.08,5.424673
0.08,5.426009

File: charging_cycle_255.csv
control/mA,Ewe/V
-0.08,-5.346534
-0.08,-5.377009
-0.08,-5.399908
-0.08,-5.424887
-0.08,-5.445707
-0.08,-5.46513
-0.08,-5.48256
-0.08,-5.499043
-0.08,-5.51481
-0.08,-5.522381
0.08,-4.733629
0.08,-3.72891
0.08,-2.728728
0.08,-1.728631
0.08,-0.7285819
0.08,0.173649
0.08,0.586472
0.08,0.801839
0.08,0.905993
0.08,0.9794804
0.08,1.03972
0.08,1.11243
0.08,1.17243
0.08,1.25259
0.08,1.350773
0.08,1.47798
0.08,1.6353
0.08,1.81206
0.08,1.97073
0.08,2.09156
0.08,2.19316
0.08,2.28981
0.08,2.39971
0.08,2.51961
0.08,2.6562
0.08,2.820541
0.08,2.98324
0.08,3.149069
0.08,3.32455
0.08,3.4941
0.08,3.65052
0.08,3.78973
0.08,3.91827
0.08,4.035977
0.08,4.15517
0.08,4.269558
0.08,4.379875
0.08,4.483628
0.08,4.5794
0.08,4.66314
0.08,4.744336
0.08,4.81738
0.08,4.882533
0.08,4.94272
0.08,4.99768
0.08,5.048152
0.08,5.09506
0.08,5.14093
0.08,5.1837
0.08,5.222587
0.08,5.255734
0.08,5.28604
0.08,5.310864
0.08,5.3331
0.08,5.351701
0.08,5.367387
0.08,5.38063
0.08,5.392309
0.08,5.4012
0.08,5.40588
0.08,5.415991
0.08,5.42204
0.08,5.420838
0.08,5.43068
0.08,5.43215

File: charging_cycle_256.csv
control/mA,Ewe/V
-0.08,-5.37562
-0.08,-5.40115
-0.08,-5.424792
-0.08,-5.446661
-0.08,-5.466545
-0.08,-5.48557
-0.08,-5.50284
-0.08,-5.51824
-0.08,-5.531846
-0.08,-5.538754
0.08,-4.760401
0.08,-3.75608
0.08,-2.75581
0.08,-1.75579
0.08,-0.7557557
0.08,0.16905
0.08,0.592674
0.08,0.8059612
0.08,0.911412
0.08,0.9826863
0.08,1.04713
0.08,1.11382
0.08,1.18409
0.08,1.26208
0.08,1.36068
0.08,1.48727
0.08,1.64904
0.08,1.82731
0.08,1.99008
0.08,2.10849
0.08,2.20737
0.08,2.303838
0.08,2.40633
0.08,2.523003
0.08,2.65933
0.08,2.810618
0.08,2.97126
0.08,3.13834
0.08,3.309574
0.08,3.478456
0.08,3.63461
0.08,3.775555
0.08,3.90499
0.08,4.0255
0.08,4.130627
0.08,4.245514
0.08,4.36467
0.08,4.470461
0.08,4.568966
0.08,4.660353
0.08,4.730253
0.08,4.8083
0.08,4.87618
0.08,4.93839
0.08,4.994606
0.08,5.04567
0.08,5.091928
0.08,5.137593
0.08,5.18185
0.08,5.21845
0.08,5.252719
0.08,5.281
0.08,5.30338
0.08,5.321741
0.08,5.33724
0.08,5.35107
0.08,5.362712
0.08,5.3721
0.08,5.38059
0.08,5.38727
0.08,5.39294
0.08,5.397671
0.08,5.40284
0.08,5.406965
0.08,5.408739

File: charging_cycle_257.csv
control/mA,Ewe/V
-0.08,-5.371876
-0.08,-5.39519
-0.08,-5.41661
-0.08,-5.435803
-0.08,-5.45336
-0.08,-5.468243
-0.08,-5.48233
-0.08,-5.49523
-0.08,-5.507363
-0.08,-5.513355
0.08,-4.75134
0.08,-3.745417
0.08,-2.745082
0.08,-1.745023
0.08,-0.7449549
0.08,0.161436
0.08,0.5859756
0.08,0.808347
0.08,0.924465
0.08,1.00123
0.08,1.06459
0.08,1.12873
0.08,1.19668
0.08,1.27866
0.08,1.37808
0.08,1.50803
0.08,1.67203
0.08,1.8536
0.08,2.011875
0.08,2.127
0.08,2.21804
0.08,2.31401
0.08,2.42015
0.08,2.54172
0.08,2.68551
0.08,2.83798
0.08,3.00291
0.08,3.168934
0.08,3.3385
0.08,3.50504
0.08,3.65692
0.08,3.79147
0.08,3.91713
0.08,4.03544
0.08,4.149252
0.08,4.26015
0.08,4.36764
0.08,4.473495
0.08,4.56315
0.08,4.65556
0.08,4.72854
0.08,4.80618
0.08,4.8737
0.08,4.93574
0.08,4.9927
0.08,5.04472
0.08,5.095401
0.08,5.140627
0.08,5.180739
0.08,5.217912
0.08,5.25009
0.08,5.27484
0.08,5.293594
0.08,5.310826
0.08,5.32483
0.08,5.33731
0.08,5.34748
0.08,5.35529
0.08,5.3638
0.08,5.368112
0.08,5.376394
0.08,5.381966
0.08,5.38637
0.08,5.390744
0.08,5.39265

File: charging_cycle_258.csv
control/mA,Ewe/V
-0.08,-5.386646
-0.08,-5.40672
-0.08,-5.424792
-0.08,-5.440211
-0.08,-5.45422
-0.08,-5.46815
-0.08,-5.48147
-0.08,-5.494692
-0.08,-5.507115
-0.08,-5.513813
0.08,-4.757836
0.08,-3.75511
0.08,-2.75491
0.08,-1.75491
0.08,-0.7548397
0.08,0.151418
0.08,0.5889716
0.08,0.817048
0.08,0.937861
0.08,1.01511
0.08,1.08037
0.08,1.14537
0.08,1.21395
0.08,1.2977
0.08,1.39592
0.08,1.52973
0.08,1.69714
0.08,1.87643
0.08,2.02867
0.08,2.13893
0.08,2.23108
0.08,2.32847
0.08,2.43822
0.08,2.56686
0.08,2.71887
0.08,2.8784
0.08,3.04215
0.08,3.20916
0.08,3.38134
0.08,3.54528
0.08,3.69272
0.08,3.82488
0.08,3.948177
0.08,4.06494
0.08,4.179746
0.08,4.29095
0.08,4.402107
0.08,4.505478
0.08,4.59839
0.08,4.68585
0.08,4.762388
0.08,4.83509
0.08,4.8982
0.08,4.959055
0.08,5.01382
0.08,5.06552
0.08,5.11376
0.08,5.156332
0.08,5.193944
0.08,5.22631
0.08,5.253444
0.08,5.266592
0.08,5.291972
0.08,5.30682
0.08,5.32044
0.08,5.33149
0.08,5.3393
0.08,5.34861
0.08,5.35483
0.08,5.35941
0.08,5.36403
0.08,5.368398
0.08,5.372024
0.08,5.37565
0.08,5.37731

File: charging_cycle_259.csv
control/mA,Ewe/V
-0.08,-5.42473
-0.08,-5.44132
-0.08,-5.45653
-0.08,-5.471297
-0.08,-5.48656
-0.08,-5.50032
-0.08,-5.51231
-0.08,-5.52427
-0.08,-5.5361
-0.08,-5.539632
0.08,-4.83751
0.08,-3.833503
0.08,-2.833015
0.08,-1.833
0.08,-0.833003
0.08,0.0574544
0.08,0.516591
0.08,0.7863251
0.08,0.929884
0.08,1.02018
0.08,1.08579
0.08,1.14672
0.08,1.21349
0.08,1.29076
0.08,1.3852
0.08,1.51393
0.08,1.67571
0.08,1.8582
0.08,2.01449
0.08,2.12481
0.08,2.21787
0.08,2.31647
0.08,2.43419
0.08,2.579755
0.08,2.75948
0.08,2.93111
0.08,3.103404
0.08,3.27761
0.08,3.44552
0.08,3.59528
0.08,3.72775
0.08,3.85021
0.08,3.96858
0.08,4.084161
0.08,4.2025
0.08,4.321444
0.08,4.437658
0.08,4.542174
0.08,4.63919
0.08,4.722639
0.08,4.79534
0.08,4.861504
0.08,4.91927
0.08,4.97281
0.08,5.02153
0.08,5.065403
0.08,5.10952
0.08,5.14954
0.08,5.186273
0.08,5.215584
0.08,5.24081
0.08,5.2614
0.08,5.27745
0.08,5.290713
0.08,5.301475
0.08,5.3135
0.08,5.32136
0.08,5.32781
0.08,5.33365
0.08,5.33838
0.08,5.343362
0.08,5.349144
0.08,5.35275
0.08,5.35598
0.08,5.357483

File: charging_cycle_260.csv
control/mA,Ewe/V
-0.08,-5.458645
-0.08,-5.47595
-0.08,-5.492421
-0.08,-5.50792
-0.08,-5.522515
-0.08,-5.53683
-0.08,-5.547723
-0.08,-5.561844
-0.08,-5.57421
-0.08,-5.580583
0.08,-4.864922
0.08,-3.86262
0.08,-2.862288
0.08,-1.86212
0.08,-0.8621037
0.08,0.06321742
0.08,0.511935
0.08,0.7731771
0.08,0.926984
0.08,1.01957
0.08,1.09281
0.08,1.16088
0.08,1.22307
0.08,1.29721
0.08,1.38896
0.08,1.51664
0.08,1.67632
0.08,1.85895
0.08,2.01592
0.08,2.121963
0.08,2.21323
0.08,2.311185
0.08,2.42574
0.08,2.56672
0.08,2.73616
0.08,2.9054
0.08,3.07489
0.08,3.245723
0.08,3.417086
0.08,3.57324
0.08,3.71361
0.08,3.8399
0.08,3.95791
0.08,4.07561
0.08,4.19454
0.08,4.313143
0.08,4.427735
0.08,4.535342
0.08,4.63482
0.08,4.7198
0.08,4.796222
0.08,4.86274
0.08,4.921653
0.08,4.976134
0.08,5.025692
0.08,5.07199
0.08,5.115724
0.08,5.156313
0.08,5.19202
0.08,5.22093
0.08,5.244609
0.08,5.26276
0.08,5.277202
0.08,5.28789
0.08,5.296991
0.08,5.30472
0.08,5.30985
0.08,5.315654
0.08,5.320596
0.08,5.32481
0.08,5.328649
0.08,5.33241
0.08,5.3354
0.08,5.33863
0.08,5.340175

File: charging_cycle_261.csv
control/mA,Ewe/V
-0.08,-5.46092
-0.08,-5.478109
-0.08,-5.494272
-0.08,-5.509538
-0.08,-5.523736
-0.08,-5.538506
-0.08,-5.55112
-0.08,-5.563695
-0.08,-5.57555
-0.08,-5.58205
0.08,-4.88897
0.08,-3.88671
0.08,-2.88639
0.08,-1.88638
0.08,-0.8863388
0.08,0.00184738
0.08,0.477013
0.08,0.7414998
0.08,0.9030732
0.08,1.01003
0.08,1.083882
0.08,1.14596
0.08,1.21229
0.08,1.2865
0.08,1.37747
0.08,1.49937
0.08,1.65478
0.08,1.83601
0.08,2.00008
0.08,2.10956
0.08,2.19995
0.08,2.29519
0.08,2.40958
0.08,2.55308
0.08,2.72744
0.08,2.90021
0.08,3.07266
0.08,3.24494
0.08,3.41426
0.08,3.57391
0.08,3.71438
0.08,3.84105
0.08,3.95949
0.08,4.077596
0.08,4.197616
0.08,4.31826
0.08,4.4351
0.08,4.54446
0.08,4.64232
0.08,4.72752
0.08,4.80286
0.08,4.868126
0.08,4.926576
0.08,4.979206
0.08,5.027352
0.08,5.074696
0.08,5.11746
0.08,5.156351
0.08,5.188544
0.08,5.21621
0.08,5.23627
0.08,5.253024
0.08,5.26585
0.08,5.276477
0.08,5.2851
0.08,5.29142
0.08,5.29663
0.08,5.302162
0.08,5.306322
0.08,5.310559
0.08,5.314089
0.08,5.317562
0.08,5.320577
0.08,5.313593
0.08,5.31854

File: charging_cycle_262.csv
control/mA,Ewe/V
-0.08,-5.45328
-0.08,-5.46956
-0.08,-5.484597
-0.08,-5.496581
-0.08,-5.512229
-0.08,-5.525148
-0.08,-5.53742
-0.08,-5.548639
-0.08,-5.558867
-0.08,-5.56606
0.08,-4.88664
0.08,-3.88068
0.08,-2.88044
0.08,-1.88042
0.08,-0.8803277
0.08,0.0236971
0.08,0.48707
0.08,0.741862
0.08,0.9063936
0.08,1.01089
0.08,1.08117
0.08,1.1475
0.08,1.21494
0.08,1.29549
0.08,1.39027
0.08,1.51156
0.08,1.66949
0.08,1.8499
0.08,2.01021
0.08,2.11633
0.08,2.204856
0.08,2.30109
0.08,2.41694
0.08,2.565901
0.08,2.742397
0.08,2.91628
0.08,3.08886
0.08,3.26286
0.08,3.43294
0.08,3.58772
0.08,3.71535
0.08,3.84618
0.08,3.96249
0.08,4.08111
0.08,4.203131
0.08,4.32436
0.08,4.439852
0.08,4.5508
0.08,4.648541
0.08,4.73453
0.08,4.80893
0.08,4.87492
0.08,4.93222
0.08,4.98505
0.08,5.03329
0.08,5.076547
0.08,5.119388
0.08,5.150951
0.08,5.18417
0.08,5.21137
0.08,5.231652
0.08,5.24839
0.08,5.2607
0.08,5.26882
0.08,5.27547
0.08,5.281553
0.08,5.286782
0.08,5.291972
0.08,5.29602
0.08,5.29968
0.08,5.302124
0.08,5.305559
0.08,5.30796
0.08,5.309433
0.08,5.311112