Folder: Battery_Analysis1

Note: .travis.yml
language: python
python:
  - "3.12" 

before_install:
  - pyenv install 3.12.4
  - pyenv global 3.12.4

install:
  - pip install -r requirements.txt

script:
  - pytest

Note: README.md
Battery_Analysis

![Build Status](https://img.shields.io/github/workflow/status/username/repository/CI)
![Build Status](https://travis-ci.com/Waltberry/Battery_Analysis1.svg?branch=main)

![Coverage](https://img.shields.io/codecov/c/github/Waltberry/Battery_Analysis1)

File: charging_cycle_0.csv
control/mA,Ewe/V
0.01,0.4074031
0.01,0.7294204
0.01,0.746633
0.01,0.757071
0.01,0.764113
0.01,0.7694941
0.01,0.770353
0.01,0.772147
0.01,0.77333
0.01,0.7748373
0.01,0.77623
0.01,0.777394
0.01,0.778425
0.01,0.779722
0.01,0.7807911
0.01,0.782108
0.01,0.783196
0.01,0.7845695
0.01,0.7855809
0.01,0.7866495
0.01,0.7876418
0.01,0.7884814
0.01,0.7896455
0.01,0.7906
0.01,0.7915156
0.01,0.7925079
0.01,0.7931758
0.01,0.7943589
0.01,0.7953512
0.01,0.7961527
0.01,0.796992
0.01,0.798118
0.01,0.7990723
0.01,0.8004081
0.01,0.801839
0.01,0.8029652
0.01,0.8042056
0.01,0.8054078
0.01,0.80703
0.01,0.808423
0.01,0.8098541
0.01,0.8117051
0.01,0.812984
0.01,0.8147393
0.01,0.8166857
0.01,0.818441
0.01,0.8204259
0.01,0.8221243
0.01,0.823842
0.01,0.8258645
0.01,0.8276583
0.01,0.829567
0.01,0.8318374
0.01,0.8340701
0.01,0.8360356
0.01,0.8385545
0.01,0.840921
0.01,0.8434397
0.01,0.8459395
0.01,0.8483821
0.01,0.8507102

File: charging_cycle_1.csv
control/mA,Ewe/V
-0.01,-0.9531031
-0.01,-0.9584081
-0.01,-0.9635986
-0.01,-0.9689609
-0.01,-0.974399
-0.01,-0.979762
-0.01,-0.9849713
-0.01,-0.9903144
-0.01,-0.9956385
-0.01,-1.00133
0.01,-0.13877
0.01,0.5963375
0.01,0.641602
0.01,0.670016
0.01,0.6895948
0.01,0.7060822
0.01,0.719994
0.01,0.7321111
0.01,0.742931
0.01,0.750717
0.01,0.7585979
0.01,0.7668607
0.01,0.774704
0.01,0.7822986
0.01,0.789607
0.01,0.797107
0.01,0.8043392
0.01,0.8116479
0.01,0.8190138
0.01,0.8257309
0.01,0.8327152
0.01,0.838898
0.01,0.845462
0.01,0.85155
0.01,0.857351
0.01,0.863267
0.01,0.8681709
0.01,0.8739529
0.01,0.880155
0.01,0.886452
0.01,0.8925968
0.01,0.898722
0.01,0.904962
0.01,0.9110116
0.01,0.917252
0.01,0.923797
0.01,0.929884
0.01,0.9361817
0.01,0.942517
0.01,0.949158
0.01,0.9554743
0.01,0.9621342
0.01,0.9685078
0.01,0.9749578
0.01,0.9815032
0.01,0.987934
0.01,0.9943649
0.01,1.00091
0.01,1.007532
0.01,1.01381
0.01,1.02018
0.01,1.02661
0.01,1.03337
0.01,1.0399
0.01,1.04673
0.01,1.053178
0.01,1.05997
0.01,1.06686
0.01,1.07323
0.01,1.0797
0.01,1.08625

File: charging_cycle_2.csv
control/mA,Ewe/V
-0.01,-1.29755
-0.01,-1.30447
-0.01,-1.31146
-0.01,-1.31859
-0.01,-1.32543
-0.01,-1.332544
-0.01,-1.33928
-0.01,-1.34619
-0.01,-1.35281
-0.01,-1.35985
0.01,-0.291304
0.01,0.7087157
0.01,0.7817834
0.01,0.8226586
0.01,0.8513781
0.01,0.874621
0.01,0.8941616
0.01,0.9108971
0.01,0.9261251
0.01,0.939369
0.01,0.9520967
0.01,0.9636799
0.01,0.973965
0.01,0.983927
0.01,0.9938497
0.01,1.002437
0.01,1.0115
0.01,1.01963
0.01,1.02745
0.01,1.03553
0.01,1.04348
0.01,1.05081
0.01,1.058044
0.01,1.06512
0.01,1.07205
0.01,1.0794
0.01,1.08602
0.01,1.09297
0.01,1.10037
0.01,1.10632
0.01,1.11306
0.01,1.11974
0.01,1.1264
0.01,1.13312
0.01,1.13941
0.01,1.14615
0.01,1.15262
0.01,1.15909
0.01,1.16537
0.01,1.17183
0.01,1.17851
0.01,1.18452
0.01,1.19071
0.01,1.19702
0.01,1.20302
0.01,1.20945
0.01,1.21527
0.01,1.22175
0.01,1.22809
0.01,1.23412
0.01,1.24034
0.01,1.246524
0.01,1.25324
0.01,1.259443
0.01,1.265664
0.01,1.27232
0.01,1.2786
0.01,1.28498
0.01,1.29129
0.01,1.297513
0.01,1.30335
0.01,1.30623

File: charging_cycle_3.csv
control/mA,Ewe/V
-0.01,-1.486904
-0.01,-1.49545
-0.01,-1.50372
-0.01,-1.51162
-0.01,-1.51976
-0.01,-1.52738
-0.01,-1.5352
-0.01,-1.5428
-0.01,-1.54925
-0.01,-1.55211
0.01,-0.391738
0.01,0.6083215
0.01,0.8401193
0.01,0.890288
0.01,0.922652
0.01,0.9469825
0.01,0.9671339
0.01,0.9848236
0.01,0.9975136
0.01,1.01066
0.01,1.02331
0.01,1.035202
0.01,1.04667
0.01,1.05762
0.01,1.06837
0.01,1.0789
0.01,1.08936
0.01,1.09976
0.01,1.10875
0.01,1.11781
0.01,1.12489
0.01,1.13241
0.01,1.14042
0.01,1.14861
0.01,1.15649
0.01,1.16456
0.01,1.17096
0.01,1.17809
0.01,1.18575
0.01,1.19334
0.01,1.200382
0.01,1.20729
0.01,1.215152
0.01,1.2228
0.01,1.22986
0.01,1.23757
0.01,1.24441
0.01,1.25179
0.01,1.25847
0.01,1.26524
0.01,1.27255
0.01,1.27946
0.01,1.28625
0.01,1.293334
0.01,1.30015
0.01,1.30646
0.01,1.31324
0.01,1.32003
0.01,1.32633
0.01,1.33276
0.01,1.33944
0.01,1.3461
0.01,1.35278
0.01,1.3593
0.01,1.3657
0.01,1.37216
0.01,1.37902
0.01,1.38527
0.01,1.39243
0.01,1.39865
0.01,1.40504
0.01,1.41161

File: charging_cycle_4.csv
control/mA,Ewe/V
-0.01,-1.60934
-0.01,-1.617926
-0.01,-1.62703
-0.01,-1.632448
-0.01,-1.63794
-0.01,-1.64455
-0.01,-1.65178
-0.01,-1.66019
-0.01,-1.66863
-0.01,-1.67691
0.01,-0.478144
0.01,0.5223729
0.01,0.881319
0.01,0.9289875
0.01,0.960226
0.01,0.983736
0.01,1.00423
0.01,1.02198
0.01,1.0381
0.01,1.05306
0.01,1.06673
0.01,1.07883
0.01,1.09106
0.01,1.10243
0.01,1.11298
0.01,1.123097
0.01,1.13333
0.01,1.14313
0.01,1.15279
0.01,1.16203
0.01,1.170861
0.01,1.18027
0.01,1.18912
0.01,1.19796
0.01,1.2063
0.01,1.21511
0.01,1.22319
0.01,1.23162
0.01,1.23965
0.01,1.24778
0.01,1.25586
0.01,1.26347
0.01,1.27152
0.01,1.27935
0.01,1.28683
0.01,1.294727
0.01,1.30192
0.01,1.30971
0.01,1.31707
0.01,1.32453
0.01,1.332
0.01,1.33894
0.01,1.34648
0.01,1.35375
0.01,1.36102
0.01,1.368329
0.01,1.37522
0.01,1.38222
0.01,1.38959
0.01,1.396686
0.01,1.40356
0.01,1.41052
0.01,1.41745
0.01,1.42479
0.01,1.4321
0.01,1.4393
0.01,1.44655
0.01,1.45325
0.01,1.46006
0.01,1.46714
0.01,1.47014
0.01,1.4754

File: charging_cycle_5.csv
control/mA,Ewe/V
-0.01,-1.67567
-0.01,-1.68487
-0.01,-1.69399
-0.01,-1.70252
-0.01,-1.71151
-0.01,-1.72025
-0.01,-1.7292
-0.01,-1.73803
-0.01,-1.74652
-0.01,-1.75475
0.01,-0.5383404
0.01,0.467281
0.01,0.914466
0.01,0.96097
0.01,0.9921513
0.01,1.01667
0.01,1.03713
0.01,1.0556
0.01,1.07146
0.01,1.086172
0.01,1.09985
0.01,1.11279
0.01,1.12474
0.01,1.13592
0.01,1.14642
0.01,1.15636
0.01,1.16649
0.01,1.17634
0.01,1.18559
0.01,1.19487
0.01,1.20416
0.01,1.21315
0.01,1.22237
0.01,1.23124
0.01,1.23943
0.01,1.24866
0.01,1.25721
0.01,1.26416
0.01,1.27188
0.01,1.28017
0.01,1.28791
0.01,1.296578
0.01,1.30431
0.01,1.31247
0.01,1.32077
0.01,1.32892
0.01,1.33715
0.01,1.345029
0.01,1.3535
0.01,1.3611
0.01,1.368997
0.01,1.37648
0.01,1.38417
0.01,1.3922
0.01,1.39974
0.01,1.40768
0.01,1.41491
0.01,1.422772
0.01,1.43075
0.01,1.437981
0.01,1.44601
0.01,1.45344
0.01,1.46098
0.01,1.46827
0.01,1.47611
0.01,1.48372
0.01,1.49124
0.01,1.4987
0.01,1.50422
0.01,1.50863
0.01,1.513892
0.01,1.52013

File: charging_cycle_6.csv
control/mA,Ewe/V
-0.01,-1.74973
-0.01,-1.75878
-0.01,-1.76824
-0.01,-1.77715
-0.01,-1.78614
-0.01,-1.79562
-0.01,-1.80352
-0.01,-1.81288
-0.01,-1.82165
-0.01,-1.83001
0.01,-0.594288
0.01,0.414193
0.01,0.948719
0.01,0.993296
0.01,1.022989
0.01,1.04637
0.01,1.06549
0.01,1.08283
0.01,1.09833
0.01,1.11211
0.01,1.12558
0.01,1.138115
0.01,1.1496
0.01,1.16054
0.01,1.16779
0.01,1.17577
0.01,1.185402
0.01,1.19443
0.01,1.20324
0.01,1.21275
0.01,1.22181
0.01,1.23114
0.01,1.24019
0.01,1.24929
0.01,1.258508
0.01,1.26776
0.01,1.27748
0.01,1.28658
0.01,1.29572
0.01,1.30438
0.01,1.313409
0.01,1.32285
0.01,1.331633
0.01,1.34037
0.01,1.34927
0.01,1.35812
0.01,1.36655
0.01,1.37543
0.01,1.38363
0.01,1.39205
0.01,1.40024
0.01,1.40867
0.01,1.41684
0.01,1.42502
0.01,1.43319
0.01,1.440996
0.01,1.44916
0.01,1.45699
0.01,1.46546
0.01,1.47298
0.01,1.48132
0.01,1.489409
0.01,1.49742
0.01,1.505
0.01,1.51322
0.01,1.52082
0.01,1.5287
0.01,1.53662
0.01,1.54412
0.01,1.552
0.01,1.55942
0.01,1.56704

File: charging_cycle_7.csv
control/mA,Ewe/V
-0.01,-1.79127
-0.01,-1.801311
-0.01,-1.81133
-0.01,-1.82079
-0.01,-1.83053
-0.01,-1.84024
-0.01,-1.85011
-0.01,-1.85942
-0.01,-1.86841
-0.01,-1.87785
0.01,-0.6301173
0.01,0.3751497
0.01,0.978908
0.01,1.02324
0.01,1.052281
0.01,1.07526
0.01,1.0948
0.01,1.11193
0.01,1.12735
0.01,1.140405
0.01,1.15308
0.01,1.16542
0.01,1.17668
0.01,1.18733
0.01,1.19802
0.01,1.20758
0.01,1.21788
0.01,1.227365
0.01,1.23725
0.01,1.246524
0.01,1.256199
0.01,1.26515
0.01,1.27473
0.01,1.283888
0.01,1.29328
0.01,1.3027
0.01,1.31213
0.01,1.32077
0.01,1.32951
0.01,1.33923
0.01,1.34806
0.01,1.35686
0.01,1.3652
0.01,1.37371
0.01,1.38312
0.01,1.39159
0.01,1.40035
0.01,1.40888
0.01,1.41718
0.01,1.4259
0.01,1.43434
0.01,1.44105
0.01,1.44974
0.01,1.45788
0.01,1.46611
0.01,1.47491
0.01,1.48307
0.01,1.49137
0.01,1.49943
0.01,1.50759
0.01,1.515724
0.01,1.52399
0.01,1.53194
0.01,1.53981
0.01,1.54845
0.01,1.55626
0.01,1.56444
0.01,1.5725
0.01,1.58062
0.01,1.58852
0.01,1.59642
0.01,1.60398

File: charging_cycle_8.csv
control/mA,Ewe/V
-0.01,-1.837072
-0.01,-1.8478
-0.01,-1.857605
-0.01,-1.86161
-0.01,-1.86932
-0.01,-1.88102
-0.01,-1.89085
-0.01,-1.89917
-0.01,-1.90873
-0.01,-1.91896
0.01,-0.664103
0.01,0.345247
0.01,0.994289
0.01,1.03623
0.01,1.06459
0.01,1.08745
0.01,1.1063
0.01,1.123326
0.01,1.13874
0.01,1.15306
0.01,1.16605
0.01,1.1784
0.01,1.19006
0.01,1.2017
0.01,1.21221
0.01,1.22317
0.01,1.23364
0.01,1.24339
0.01,1.25404
0.01,1.26349
0.01,1.27353
0.01,1.28343
0.01,1.29263
0.01,1.30158
0.01,1.31066
0.01,1.3203
0.01,1.32976
0.01,1.339247
0.01,1.34839
0.01,1.35778
0.01,1.36646
0.01,1.37611
0.01,1.38489
0.01,1.394
0.01,1.40298
0.01,1.41189
0.01,1.42155
0.01,1.42981
0.01,1.43859
0.01,1.44735
0.01,1.456434
0.01,1.46515
0.01,1.47378
0.01,1.48284
0.01,1.49137
0.01,1.50015
0.01,1.50847
0.01,1.51725
0.01,1.52601
0.01,1.534425
0.01,1.54303
0.01,1.55133
0.01,1.55965
0.01,1.56826
0.01,1.57635
0.01,1.58461
0.01,1.59257
0.01,1.60045
0.01,1.60831
0.01,1.61703
0.01,1.624629
0.01,1.6328

File: charging_cycle_9.csv
control/mA,Ewe/V
-0.01,-1.87388
-0.01,-1.88434
-0.01,-1.89478
-0.01,-1.90569
-0.01,-1.916
-0.01,-1.92594
-0.01,-1.936035
-0.01,-1.94632
-0.01,-1.95619
-0.01,-1.96636
0.01,-0.7024969
0.01,0.310669
0.01,1.015146
0.01,1.05871
0.01,1.08682
0.01,1.10911
0.01,1.12804
0.01,1.14506
0.01,1.16109
0.01,1.17508
0.01,1.1888
0.01,1.20105
0.01,1.21286
0.01,1.22404
0.01,1.23458
0.01,1.24475
0.01,1.255
0.01,1.26448
0.01,1.27448
0.01,1.28395
0.01,1.29387
0.01,1.30343
0.01,1.31278
0.01,1.32211
0.01,1.332
0.01,1.34165
0.01,1.351479
0.01,1.36157
0.01,1.37136
0.01,1.38056
0.01,1.39037
0.01,1.40045
0.01,1.41035
0.01,1.42008
0.01,1.42941
0.01,1.4389
0.01,1.44815
0.01,1.45735
0.01,1.46655
0.01,1.47563
0.01,1.48466
0.01,1.493588
0.01,1.50282
0.01,1.51246
0.01,1.52124
0.01,1.52985
0.01,1.5387
0.01,1.54746
0.01,1.55666
0.01,1.565
0.01,1.57442
0.01,1.58291
0.01,1.59135
0.01,1.59952
0.01,1.60808
0.01,1.61703
0.01,1.62541
0.01,1.634056
0.01,1.64241
0.01,1.65031
0.01,1.65896
0.01,1.66726

File: charging_cycle_10.csv
control/mA,Ewe/V
-0.01,-1.90218
-0.01,-1.91346
-0.01,-1.92449
-0.01,-1.93592
-0.01,-1.94653
-0.01,-1.95716
-0.01,-1.96775
-0.01,-1.97794
-0.01,-1.9883
-0.01,-1.99855
0.01,-0.732635
0.01,0.281969
0.01,1.0236
0.01,1.06755
0.01,1.09714
0.01,1.12119
0.01,1.14189
0.01,1.159774
0.01,1.17603
0.01,1.19143
0.01,1.20559
0.01,1.21866
0.01,1.23101
0.01,1.2429
0.01,1.25431
0.01,1.26528
0.01,1.27589
0.01,1.28604
0.01,1.296101
0.01,1.30642
0.01,1.3164
0.01,1.32663
0.01,1.33633
0.01,1.34619
0.01,1.35606
0.01,1.36596
0.01,1.3756
0.01,1.38545
0.01,1.3956
0.01,1.40516
0.01,1.41506
0.01,1.42499
0.01,1.43415
0.01,1.44432
0.01,1.4534
0.01,1.46241
0.01,1.47176
0.01,1.48115
0.01,1.49063
0.01,1.49952
0.01,1.50918
0.01,1.518262
0.01,1.52763
0.01,1.53683
0.01,1.54607
0.01,1.55486
0.01,1.564404
0.01,1.573163
0.01,1.58209
0.01,1.59144
0.01,1.60013
0.01,1.60858
0.01,1.61734
0.01,1.62614
0.01,1.63541
0.01,1.64406
0.01,1.65323
0.01,1.661745
0.01,1.67026
0.01,1.67863
0.01,1.6881
0.01,1.69602

File: charging_cycle_11.csv
control/mA,Ewe/V
-0.01,-1.92815
-0.01,-1.93928
-0.01,-1.95088
-0.01,-1.96195
-0.01,-1.97311
-0.01,-1.98359
-0.01,-1.99443
-0.01,-2.00462
-0.01,-2.01445
-0.01,-2.02473
0.01,-0.7531546
0.01,0.256245
0.01,1.03505
0.01,1.07938
0.01,1.11012
0.01,1.1338
0.01,1.15456
0.01,1.17307
0.01,1.18947
0.01,1.20506
0.01,1.21832
0.01,1.23141
0.01,1.24404
0.01,1.25565
0.01,1.26719
0.01,1.278106
0.01,1.28883
0.01,1.299555
0.01,1.3098
0.01,1.319878
0.01,1.33035
0.01,1.34024
0.01,1.35058
0.01,1.36089
0.01,1.37152
0.01,1.38173
0.01,1.39205
0.01,1.40191
0.01,1.41212
0.01,1.42258
0.01,1.43231
0.01,1.44252
0.01,1.45302
0.01,1.46302
0.01,1.47286
0.01,1.48239
0.01,1.49294
0.01,1.50246
0.01,1.51208
0.01,1.52219
0.01,1.53147
0.01,1.54093
0.01,1.55015
0.01,1.55967
0.01,1.569022
0.01,1.57736
0.01,1.585853
0.01,1.59511
0.01,1.60394
0.01,1.61223
0.01,1.62072
0.01,1.62978
0.01,1.63782
0.01,1.64718
0.01,1.65604
0.01,1.66386
0.01,1.67239
0.01,1.68096
0.01,1.68947
0.01,1.69815
0.01,1.706265
0.01,1.71497

File: charging_cycle_12.csv
control/mA,Ewe/V
-0.01,-1.9343
-0.01,-1.94531
-0.01,-1.95596
-0.01,-1.96617
-0.01,-1.977101
-0.01,-1.98746
-0.01,-1.99779
-0.01,-2.008492
-0.01,-2.01891
-0.01,-2.02849
0.01,-0.7566814
0.01,0.251723
0.01,1.04774
0.01,1.09058
0.01,1.1198
0.01,1.14304
0.01,1.163247
0.01,1.18056
0.01,1.197157
0.01,1.21252
0.01,1.22656
0.01,1.23994
0.01,1.25259
0.01,1.26439
0.01,1.27612
0.01,1.28765
0.01,1.29864
0.01,1.309726
0.01,1.32037
0.01,1.33148
0.01,1.34171
0.01,1.35182
0.01,1.36217
0.01,1.37278
0.01,1.38228
0.01,1.392545
0.01,1.40247
0.01,1.41283
0.01,1.42361
0.01,1.43344
0.01,1.44357
0.01,1.45361
0.01,1.46344
0.01,1.47368
0.01,1.48372
0.01,1.49298
0.01,1.50307
0.01,1.51258
0.01,1.5221
0.01,1.53227
0.01,1.54175
0.01,1.551237
0.01,1.56061
0.01,1.57036
0.01,1.57988
0.01,1.5895
0.01,1.59892
0.01,1.60808
0.01,1.6173
0.01,1.62696
0.01,1.63617
0.01,1.64543
0.01,1.65421
0.01,1.66321
0.01,1.67251
0.01,1.68161
0.01,1.69064
0.01,1.69489
0.01,1.7021
0.01,1.71022
0.01,1.7188
0.01,1.72687

File: charging_cycle_13.csv
control/mA,Ewe/V
-0.01,-1.96044
-0.01,-1.97138
-0.01,-1.982635
-0.01,-1.99372
-0.01,-2.00466
-0.01,-2.01536
-0.01,-2.02591
-0.01,-2.037116
-0.01,-2.04733
-0.01,-2.058069
0.01,-0.7805674
0.01,0.235502
0.01,1.07207
0.01,1.11417
0.01,1.143
0.01,1.16691
0.01,1.18672
0.01,1.204752
0.01,1.22105
0.01,1.23624
0.01,1.24984
0.01,1.262878
0.01,1.27517
0.01,1.28704
0.01,1.29822
0.01,1.30881
0.01,1.3194
0.01,1.32953
0.01,1.33999
0.01,1.35064
0.01,1.36083
0.01,1.37102
0.01,1.38069
0.01,1.39111
0.01,1.40128
0.01,1.41172
0.01,1.4217
0.01,1.4321
0.01,1.44262
0.01,1.45288
0.01,1.46302
0.01,1.47353
0.01,1.48399
0.01,1.49454
0.01,1.50475
0.01,1.51517
0.01,1.52534
0.01,1.53561
0.01,1.5461
0.01,1.55668
0.01,1.56646
0.01,1.57645
0.01,1.58648
0.01,1.59705
0.01,1.606386
0.01,1.61621
0.01,1.625774
0.01,1.63539
0.01,1.6453
0.01,1.65459
0.01,1.66426
0.01,1.67342
0.01,1.68281
0.01,1.69186
0.01,1.70113
0.01,1.71054
0.01,1.72004
0.01,1.72897
0.01,1.7383
0.01,1.74727
0.01,1.75662
0.01,1.76567

File: charging_cycle_14.csv
control/mA,Ewe/V
-0.01,-1.97889
-0.01,-1.99063
-0.01,-2.00212
-0.01,-2.01326
-0.01,-2.02406
-0.01,-2.035246
-0.01,-2.046295
-0.01,-2.05702
-0.01,-2.06816
-0.01,-2.07872
0.01,-0.795717
0.01,0.215752
0.01,1.09048
0.01,1.132772
0.01,1.16248
0.01,1.185841
0.01,1.20622
0.01,1.22441
0.01,1.24038
0.01,1.25589
0.01,1.27013
0.01,1.28284
0.01,1.29568
0.01,1.30789
0.01,1.31957
0.01,1.33045
0.01,1.34163
0.01,1.35211
0.01,1.3631
0.01,1.37348
0.01,1.38428
0.01,1.39506
0.01,1.405674
0.01,1.41617
0.01,1.427142
0.01,1.43787
0.01,1.44842
0.01,1.45916
0.01,1.470059
0.01,1.480879
0.01,1.491279
0.01,1.50208
0.01,1.51294
0.01,1.52326
0.01,1.53381
0.01,1.54395
0.01,1.554233
0.01,1.565072
0.01,1.57536
0.01,1.58547
0.01,1.59587
0.01,1.60587
0.01,1.61616
0.01,1.62665
0.01,1.63644
0.01,1.64614
0.01,1.65579
0.01,1.66575
0.01,1.67579
0.01,1.685045
0.01,1.6951
0.01,1.70487
0.01,1.71462
0.01,1.72441
0.01,1.73392
0.01,1.74372
0.01,1.752865
0.01,1.76279
0.01,1.77214
0.01,1.78128
0.01,1.79015
0.01,1.80004

File: charging_cycle_15.csv
control/mA,Ewe/V
-0.01,-2.00002
-0.01,-2.011221
-0.01,-2.02275
-0.01,-2.034082
-0.01,-2.04534
-0.01,-2.05608
-0.01,-2.067
-0.01,-2.07803
-0.01,-2.08975
-0.01,-2.10018
0.01,-0.814553
0.01,0.19041
0.01,1.10838
0.01,1.14989
0.01,1.17924
0.01,1.20347
0.01,1.2237
0.01,1.24215
0.01,1.25883
0.01,1.27408
0.01,1.28889
0.01,1.30183
0.01,1.314
0.01,1.326576
0.01,1.33791
0.01,1.34928
0.01,1.360696
0.01,1.371077
0.01,1.38203
0.01,1.39264
0.01,1.40327
0.01,1.41426
0.01,1.42514
0.01,1.43626
0.01,1.44695
0.01,1.45792
0.01,1.468914
0.01,1.47992
0.01,1.490821
0.01,1.501431
0.01,1.5124
0.01,1.52353
0.01,1.53492
0.01,1.54565
0.01,1.55616
0.01,1.56709
0.01,1.5777
0.01,1.5883
0.01,1.59906
0.01,1.60948
0.01,1.61961
0.01,1.62984
0.01,1.640315
0.01,1.65081
0.01,1.66094
0.01,1.67167
0.01,1.68186
0.01,1.69205
0.01,1.70237
0.01,1.71247
0.01,1.72182
0.01,1.73197
0.01,1.74201
0.01,1.75147
0.01,1.76111
0.01,1.77094
0.01,1.78052
0.01,1.79031
0.01,1.80013
0.01,1.80935
0.01,1.8187
0.01,1.82838

File: charging_cycle_16.csv
control/mA,Ewe/V
-0.01,-2.02002
-0.01,-2.031792
-0.01,-2.04385
-0.01,-2.05513
-0.01,-2.06654
-0.01,-2.077953
-0.01,-2.0891
-0.01,-2.099841
-0.01,-2.11089
-0.01,-2.12146
0.01,-0.832508
0.01,0.191326
0.01,1.12264
0.01,1.16378
0.01,1.19349
0.01,1.21771
0.01,1.23845
0.01,1.25719
0.01,1.27406
0.01,1.28967
0.01,1.30398
0.01,1.31753
0.01,1.33055
0.01,1.3431
0.01,1.35488
0.01,1.36644
0.01,1.3773
0.01,1.38844
0.01,1.3992
0.01,1.4101
0.01,1.42123
0.01,1.43241
0.01,1.44344
0.01,1.45409
0.01,1.46514
0.01,1.47628
0.01,1.487577
0.01,1.49836
0.01,1.5092
0.01,1.52061
0.01,1.53173
0.01,1.54234
0.01,1.553775
0.01,1.56488
0.01,1.57606
0.01,1.58692
0.01,1.59801
0.01,1.60887
0.01,1.61948
0.01,1.63035
0.01,1.64104
0.01,1.65157
0.01,1.66218
0.01,1.673061
0.01,1.68316
0.01,1.69354
0.01,1.70401
0.01,1.71479
0.01,1.72527
0.01,1.73525
0.01,1.74556
0.01,1.75557
0.01,1.76609
0.01,1.77613
0.01,1.7863
0.01,1.796488
0.01,1.806163
0.01,1.81603
0.01,1.82628
0.01,1.83647
0.01,1.8458
0.01,1.85605

File: charging_cycle_17.csv
control/mA,Ewe/V
-0.01,-2.034101
-0.01,-2.04614
-0.01,-2.05778
-0.01,-2.07005
-0.01,-2.08164
-0.01,-2.093162
-0.01,-2.10454
-0.01,-2.1157
-0.01,-2.126614
-0.01,-2.13774
0.01,-0.846214
0.01,0.161423
0.01,1.13458
0.01,1.17573
0.01,1.20632
0.01,1.23093
0.01,1.25181
0.01,1.27106
0.01,1.28797
0.01,1.30366
0.01,1.31873
0.01,1.33213
0.01,1.34495
0.01,1.35728
0.01,1.36942
0.01,1.38073
0.01,1.39241
0.01,1.403632
0.01,1.4147
0.01,1.42567
0.01,1.43653
0.01,1.44798
0.01,1.45878
0.01,1.47015
0.01,1.48103
0.01,1.49212
0.01,1.50357
0.01,1.51509
0.01,1.52605
0.01,1.537192
0.01,1.54929
0.01,1.56021
0.01,1.57181
0.01,1.5827
0.01,1.59431
0.01,1.60595
0.01,1.61705
0.01,1.62822
0.01,1.63949
0.01,1.65062
0.01,1.66098
0.01,1.67239
0.01,1.68335
0.01,1.69447
0.01,1.70531
0.01,1.71581
0.01,1.7268
0.01,1.73739
0.01,1.74794
0.01,1.75878
0.01,1.76928
0.01,1.77966
0.01,1.79031
0.01,1.80044
0.01,1.81153
0.01,1.82166
0.01,1.83166
0.01,1.84196
0.01,1.85234
0.01,1.86251
0.01,1.87263
0.01,1.88247

File: charging_cycle_18.csv
control/mA,Ewe/V
-0.01,-2.04858
-0.01,-2.06116
-0.01,-2.07305
-0.01,-2.08423
-0.01,-2.09681
-0.01,-2.1082
-0.01,-2.12016
-0.01,-2.130946
-0.01,-2.142262
-0.01,-2.153139
0.01,-0.8588784
0.01,0.160355
0.01,1.14365
0.01,1.184944
0.01,1.21532
0.01,1.24055
0.01,1.26204
0.01,1.28091
0.01,1.298658
0.01,1.314554
0.01,1.32944
0.01,1.34373
0.01,1.35654
0.01,1.36919
0.01,1.3811
0.01,1.39312
0.01,1.40506
0.01,1.416532
0.01,1.42754
0.01,1.43855
0.01,1.4501
0.01,1.461529
0.01,1.47271
0.01,1.4846
0.01,1.49592
0.01,1.50763
0.01,1.51903
0.01,1.53067
0.01,1.54257
0.01,1.55481
0.01,1.56608
0.01,1.57774
0.01,1.58938
0.01,1.60072
0.01,1.612378
0.01,1.62409
0.01,1.6349
0.01,1.646307
0.01,1.65791
0.01,1.66907
0.01,1.68037
0.01,1.69209
0.01,1.70296
0.01,1.71394
0.01,1.72508
0.01,1.73638
0.01,1.7476
0.01,1.758876
0.01,1.77
0.01,1.78046
0.01,1.79166
0.01,1.80217
0.01,1.81269
0.01,1.82355
0.01,1.83414
0.01,1.84471
0.01,1.85561
0.01,1.86612
0.01,1.87637
0.01,1.88671
0.01,1.89696
0.01,1.907187

File: charging_cycle_19.csv
control/mA,Ewe/V
-0.01,-2.062458
-0.01,-2.075644
-0.01,-2.08774
-0.01,-2.09885
-0.01,-2.11118
-0.01,-2.12299
-0.01,-2.135316
-0.01,-2.14677
-0.01,-2.15831
-0.01,-2.169
0.01,-0.8725848
0.01,0.1601065
0.01,1.15187
0.01,1.192558
0.01,1.22378
0.01,1.2482
0.01,1.26971
0.01,1.28969
0.01,1.30738
0.01,1.32318
0.01,1.338121
0.01,1.35253
0.01,1.36591
0.01,1.37909
0.01,1.391381
0.01,1.403613
0.01,1.41567
0.01,1.42703
0.01,1.43871
0.01,1.45002
0.01,1.46124
0.01,1.47267
0.01,1.48449
0.01,1.49639
0.01,1.508
0.01,1.51973
0.01,1.531658
0.01,1.54357
0.01,1.55614
0.01,1.56776
0.01,1.58013
0.01,1.59196
0.01,1.60413
0.01,1.61593
0.01,1.62698
0.01,1.63886
0.01,1.650677
0.01,1.66237
0.01,1.67392
0.01,1.685503
0.01,1.69722
0.01,1.7088
0.01,1.72048
0.01,1.73185
0.01,1.74348
0.01,1.75441
0.01,1.76592
0.01,1.77704
0.01,1.78857
0.01,1.79967
0.01,1.8046
0.01,1.81437
0.01,1.82528
0.01,1.83563
0.01,1.84645
0.01,1.85696
0.01,1.86725
0.01,1.87837
0.01,1.88856
0.01,1.89902
0.01,1.90953
0.01,1.92108

File: charging_cycle_20.csv
control/mA,Ewe/V
-0.01,-2.07507
-0.01,-2.08734
-0.01,-2.098887
-0.01,-2.11192
-0.01,-2.124057
-0.01,-2.13625
-0.01,-2.14865
-0.01,-2.160944
-0.01,-2.171344
-0.01,-2.18308
0.01,-0.887013
0.01,0.118697
0.01,1.11877
0.01,1.16903
0.01,1.20628
0.01,1.23511
0.01,1.25958
0.01,1.28049
0.01,1.2995
0.01,1.31692
0.01,1.33295
0.01,1.34736
0.01,1.361841
0.01,1.37533
0.01,1.38833
0.01,1.40043
0.01,1.41161
0.01,1.42403
0.01,1.43563
0.01,1.44684
0.01,1.45813
0.01,1.469601
0.01,1.481127
0.01,1.49296
0.01,1.50424
0.01,1.51653
0.01,1.52809
0.01,1.54015
0.01,1.551962
0.01,1.56425
0.01,1.57645
0.01,1.58835
0.01,1.60045
0.01,1.61234
0.01,1.624629
0.01,1.63635
0.01,1.648139
0.01,1.65987
0.01,1.6719
0.01,1.68392
0.01,1.69577
0.01,1.7076
0.01,1.71932
0.01,1.73126
0.01,1.74313
0.01,1.75491
0.01,1.76706
0.01,1.7783
0.01,1.79011
0.01,1.80227
0.01,1.8145
0.01,1.82528
0.01,1.8371
0.01,1.84879
0.01,1.86011
0.01,1.87124
0.01,1.88303
0.01,1.89394
0.01,1.90516
0.01,1.91638
0.01,1.9281
0.01,1.93883
0.01,1.94634

File: charging_cycle_21.csv
control/mA,Ewe/V
-0.01,-2.08372
-0.01,-2.096597
-0.01,-2.11011
-0.01,-2.12202
-0.01,-2.13461
-0.01,-2.14623
-0.01,-2.15768
-0.01,-2.1694
-0.01,-2.181
-0.01,-2.19317
0.01,-0.8953487
0.01,0.117209
0.01,1.11726
0.01,1.16725
0.01,1.20559
0.01,1.23502
0.01,1.26019
0.01,1.28223
0.01,1.30202
0.01,1.31986
0.01,1.336709
0.01,1.35159
0.01,1.36655
0.01,1.38075
0.01,1.3939
0.01,1.40684
0.01,1.41924
0.01,1.43172
0.01,1.44403
0.01,1.45615
0.01,1.46794
0.01,1.48031
0.01,1.49233
0.01,1.5042
0.01,1.51622
0.01,1.52828
0.01,1.54044
0.01,1.55318
0.01,1.56585
0.01,1.578029
0.01,1.59072
0.01,1.6028
0.01,1.61503
0.01,1.62743
0.01,1.63965
0.01,1.65167
0.01,1.66375
0.01,1.676305
0.01,1.68795
0.01,1.70033
0.01,1.71262
0.01,1.72455
0.01,1.73699
0.01,1.74916
0.01,1.76151
0.01,1.77361
0.01,1.78525
0.01,1.79676
0.01,1.8091
0.01,1.82133
0.01,1.83276
0.01,1.84437
0.01,1.85618
0.01,1.86786
0.01,1.87879
0.01,1.89047
0.01,1.90223
0.01,1.91362
0.01,1.92499
0.01,1.93604
0.01,1.94678
0.01,1.958
0.01,1.96663

File: charging_cycle_22.csv
control/mA,Ewe/V
-0.01,-2.09513
-0.01,-2.10831
-0.01,-2.12072
-0.01,-2.133026
-0.01,-2.145544
-0.01,-2.15728
-0.01,-2.16961
-0.01,-2.18203
-0.01,-2.19445
-0.01,-2.20606
0.01,-0.906971
0.01,0.115472
0.01,1.1155
0.01,1.16907
0.01,1.20706
0.01,1.23738
0.01,1.26292
0.01,1.28534
0.01,1.30562
0.01,1.32343
0.01,1.34035
0.01,1.35636
0.01,1.37112
0.01,1.38503
0.01,1.39858
0.01,1.41184
0.01,1.42466
0.01,1.4375
0.01,1.44983
0.01,1.46212
0.01,1.47365
0.01,1.48605
0.01,1.49815
0.01,1.5112
0.01,1.52303
0.01,1.53525
0.01,1.5474
0.01,1.56009
0.01,1.57288
0.01,1.585395
0.01,1.59822
0.01,1.61091
0.01,1.62362
0.01,1.63614
0.01,1.64791
0.01,1.6606
0.01,1.67314
0.01,1.68556
0.01,1.6985
0.01,1.71022
0.01,1.72327
0.01,1.73594
0.01,1.74844
0.01,1.76092
0.01,1.77262
0.01,1.78469
0.01,1.79752
0.01,1.81002
0.01,1.82181
0.01,1.83378
0.01,1.84624
0.01,1.85841
0.01,1.87047
0.01,1.88173
0.01,1.89404
0.01,1.90562
0.01,1.91774
0.01,1.92869
0.01,1.94033
0.01,1.95203
0.01,1.96379
0.01,1.97529
0.01,1.984491

File: charging_cycle_23.csv
control/mA,Ewe/V
-0.01,-2.1085
-0.01,-2.1214
-0.01,-2.13461
-0.01,-2.14753
-0.01,-2.159093
-0.01,-2.17268
-0.01,-2.18487
-0.01,-2.196762
-0.01,-2.20875
-0.01,-2.2206
0.01,-0.918513
0.01,0.114709
0.01,1.11476
0.01,1.17285
0.01,1.20948
0.01,1.23923
0.01,1.26473
0.01,1.287132
0.01,1.30759
0.01,1.3257
0.01,1.34304
0.01,1.35879
0.01,1.37434
0.01,1.388633
0.01,1.40264
0.01,1.41525
0.01,1.42844
0.01,1.44084
0.01,1.45401
0.01,1.46632
0.01,1.47872
0.01,1.49107
0.01,1.50368
0.01,1.51609
0.01,1.529082
0.01,1.5416
0.01,1.55444
0.01,1.5674
0.01,1.5804
0.01,1.593009
0.01,1.60621
0.01,1.61902
0.01,1.6314
0.01,1.64404
0.01,1.65707
0.01,1.669588
0.01,1.68224
0.01,1.6955
0.01,1.70798
0.01,1.72088
0.01,1.73348
0.01,1.74592
0.01,1.75939
0.01,1.771795
0.01,1.78435
0.01,1.797404
0.01,1.8096
0.01,1.82233
0.01,1.83513
0.01,1.84753
0.01,1.86007
0.01,1.87232
0.01,1.88522
0.01,1.89665
0.01,1.909267
0.01,1.92096
0.01,1.93205
0.01,1.94446
0.01,1.9561
0.01,1.967412
0.01,1.979396
0.01,1.99083
0.01,2.00136

File: charging_cycle_24.csv
control/mA,Ewe/V
-0.01,-2.11492
-0.01,-2.12835
-0.01,-2.140869
-0.01,-2.15373
-0.01,-2.16718
-0.01,-2.17957
-0.01,-2.19195
-0.01,-2.20423
-0.01,-2.21673
-0.01,-2.22887
0.01,-0.9264487
0.01,0.112915
0.01,1.112945
0.01,1.17382
0.01,1.20947
0.01,1.23996
0.01,1.26572
0.01,1.28843
0.01,1.309039
0.01,1.3282
0.01,1.34553
0.01,1.3619
0.01,1.37749
0.01,1.39199
0.01,1.40632
0.01,1.419986
0.01,1.432905
0.01,1.44649
0.01,1.45886
0.01,1.47151
0.01,1.48468
0.01,1.49729
0.01,1.51029
0.01,1.52294
0.01,1.53553
0.01,1.54883
0.01,1.56154
0.01,1.57465
0.01,1.5881
0.01,1.60131
0.01,1.614248
0.01,1.62764
0.01,1.640754
0.01,1.65329
0.01,1.66631
0.01,1.67909
0.01,1.69232
0.01,1.70539
0.01,1.71842
0.01,1.73159
0.01,1.74466
0.01,1.75762
0.01,1.77082
0.01,1.78366
0.01,1.79714
0.01,1.80985
0.01,1.8232
0.01,1.835684
0.01,1.84885
0.01,1.8619
0.01,1.87459
0.01,1.88744
0.01,1.90001
0.01,1.91234
0.01,1.924743
0.01,1.93663
0.01,1.94877
0.01,1.96167
0.01,1.97369
0.01,1.98567
0.01,1.99745
0.01,2.00896
0.01,2.0196