Folder: Battery_Analysis1 (part 4)

File: charging_cycle_72.csv
control/mA,Ewe/V
-0.01,-0.571296
-0.01,-0.5753988
-0.01,-0.5794825
-0.01,-0.5825739
-0.01,-0.586066
-0.01,-0.589157
-0.01,-0.5930885
-0.01,-0.596371
-0.01,-0.5997484
-0.01,-0.602267
0.01,-0.322404
0.01,0.211477
0.01,0.260768
0.01,0.2905369
0.01,0.311356
0.01,0.328702
0.01,0.34269
0.01,0.356449
0.01,0.367688
0.01,0.378298
0.01,0.387992
0.01,0.3970185
0.01,0.405625
0.01,0.413487
0.01,0.420872
0.01,0.427723
0.01,0.4345733
0.01,0.4416148
0.01,0.448065
0.01,0.4544384
0.01,0.460755
0.01,0.4669185
0.01,0.472796
0.01,0.4781773
0.01,0.483826
0.01,0.4894552
0.01,0.495008
0.01,0.4998171
0.01,0.505065
0.01,0.5101409
0.01,0.515026
0.01,0.5203883
0.01,0.5251781
0.01,0.5298342
0.01,0.5345095
0.01,0.539013
0.01,0.543536
0.01,0.5480582
0.01,0.552505
0.01,0.5576568
0.01,0.5620077
0.01,0.566778
0.01,0.5709384
0.01,0.57569
0.01,0.5802699
0.01,0.584716
0.01,0.588895
0.01,0.593208
0.01,0.5975397
0.01,0.602062
0.01,0.606375
0.01,0.611012
0.01,0.6150004
0.01,0.6189315
0.01,0.6233014
0.01,0.627461
0.01,0.631736
0.01,0.6357815
0.01,0.639503
0.01,0.6435291
0.01,0.6476319

File: charging_cycle_73.csv
control/mA,Ewe/V
-0.01,-0.576181
-0.01,-0.5791772
-0.01,-0.583299
-0.01,-0.5870202
-0.01,-0.590932
-0.01,-0.594291
-0.01,-0.597592
-0.01,-0.60116
-0.01,-0.604939
-0.01,-0.6078776
0.01,-0.327774
0.01,0.209702
0.01,0.2590504
0.01,0.2880943
0.01,0.309887
0.01,0.326508
0.01,0.3407817
0.01,0.353643
0.01,0.364902
0.01,0.3754741
0.01,0.385206
0.01,0.394824
0.01,0.403449
0.01,0.411273
0.01,0.418925
0.01,0.426349
0.01,0.4335619
0.01,0.440374
0.01,0.447111
0.01,0.4534461
0.01,0.4596098
0.01,0.465506
0.01,0.4714602
0.01,0.477242
0.01,0.482681
0.01,0.488367
0.01,0.493253
0.01,0.4985958
0.01,0.5039199
0.01,0.508958
0.01,0.514148
0.01,0.519262
0.01,0.5241858
0.01,0.5294717
0.01,0.5342996
0.01,0.5386314
0.01,0.543497
0.01,0.5483254
0.01,0.5527144
0.01,0.5575423
0.01,0.5620077
0.01,0.5664158
0.01,0.571454
0.01,0.5757091
0.01,0.580174
0.01,0.5847352
0.01,0.58943
0.01,0.5940667
0.01,0.5983794
0.01,0.602692
0.01,0.6071956
0.01,0.6115083
0.01,0.6161454
0.01,0.6204963
0.01,0.6249616
0.01,0.628683
0.01,0.633396
0.01,0.63769
0.01,0.642022
0.01,0.646048
0.01,0.650189

File: charging_cycle_74.csv
control/mA,Ewe/V
-0.01,-0.5801695
-0.01,-0.583051
-0.01,-0.5865813
-0.01,-0.5911802
-0.01,-0.594825
-0.01,-0.5977638
-0.01,-0.6007979
-0.01,-0.6042328
-0.01,-0.607801
-0.01,-0.610969
0.01,-0.329377
0.01,0.2096834
0.01,0.25968
0.01,0.288991
0.01,0.309887
0.01,0.3263361
0.01,0.3401329
0.01,0.352518
0.01,0.36412
0.01,0.375073
0.01,0.384996
0.01,0.394671
0.01,0.4028387
0.01,0.41154
0.01,0.419135
0.01,0.426902
0.01,0.43381
0.01,0.441004
0.01,0.447397
0.01,0.4540758
0.01,0.460259
0.01,0.466346
0.01,0.4724334
0.01,0.478464
0.01,0.4841502
0.01,0.489875
0.01,0.495333
0.01,0.5005423
0.01,0.506019
0.01,0.511362
0.01,0.5164954
0.01,0.521705
0.01,0.526781
0.01,0.531685
0.01,0.5368758
0.01,0.5417228
0.01,0.546703
0.01,0.5514359
0.01,0.5558631
0.01,0.5600994
0.01,0.565195
0.01,0.5697553
0.01,0.574411
0.01,0.5788196
0.01,0.58401
0.01,0.5888189
0.01,0.593513
0.01,0.598208
0.01,0.602368
0.01,0.606909
0.01,0.611012
0.01,0.6151912
0.01,0.6199047
0.01,0.6244464
0.01,0.6283011
0.01,0.6326519
0.01,0.636831
0.01,0.6412964
0.01,0.6457045
0.01,0.650094
0.01,0.6539864

File: charging_cycle_75.csv
control/mA,Ewe/V
-0.01,-0.584635
-0.01,-0.587535
-0.01,-0.591276
-0.01,-0.595054
-0.01,-0.5980691
-0.01,-0.601962
-0.01,-0.6055495
-0.01,-0.6085646
-0.01,-0.611427
-0.01,-0.6157397
0.01,-0.3325035
0.01,0.2092445
0.01,0.259184
0.01,0.288629
0.01,0.309219
0.01,0.325916
0.01,0.340266
0.01,0.352327
0.01,0.364063
0.01,0.374844
0.01,0.385149
0.01,0.394175
0.01,0.402896
0.01,0.411407
0.01,0.4191735
0.01,0.426864
0.01,0.433944
0.01,0.440928
0.01,0.448008
0.01,0.4552017
0.01,0.461804
0.01,0.467873
0.01,0.473788
0.01,0.479685
0.01,0.4852379
0.01,0.4909627
0.01,0.496344
0.01,0.502012
0.01,0.507412
0.01,0.513156
0.01,0.518213
0.01,0.5236514
0.01,0.528708
0.01,0.533689
0.01,0.5392802
0.01,0.5444325
0.01,0.549356
0.01,0.554317
0.01,0.5592789
0.01,0.564088
0.01,0.5686103
0.01,0.5738008
0.01,0.5789722
0.01,0.583476
0.01,0.5880556
0.01,0.592864
0.01,0.597101
0.01,0.601757
0.01,0.606356
0.01,0.6110694
0.01,0.6161263
0.01,0.6202673
0.01,0.624828
0.01,0.6293315
0.01,0.6338923
0.01,0.6384913
0.01,0.642594
0.01,0.64725
0.01,0.6521736
0.01,0.6562191
0.01,0.6608562

File: charging_cycle_76.csv
control/mA,Ewe/V
-0.01,-0.5868866
-0.01,-0.5910085
-0.01,-0.5941953
-0.01,-0.5979355
-0.01,-0.6021146
-0.01,-0.6057976
-0.01,-0.6084501
-0.01,-0.6117323
-0.01,-0.615587
-0.01,-0.6186021
0.01,-0.3342669
0.01,0.210828
0.01,0.261111
0.01,0.290594
0.01,0.311318
0.01,0.3278627
0.01,0.341373
0.01,0.354617
0.01,0.3662762
0.01,0.3769053
0.01,0.3865993
0.01,0.3961216
0.01,0.405529
0.01,0.4140212
0.01,0.421921
0.01,0.4294782
0.01,0.4368823
0.01,0.4443627
0.01,0.451194
0.01,0.457911
0.01,0.463846
0.01,0.470163
0.01,0.476479
0.01,0.483082
0.01,0.4889018
0.01,0.495027
0.01,0.5006568
0.01,0.5063434
0.01,0.511935
0.01,0.5173732
0.01,0.522297
0.01,0.5272008
0.01,0.5323341
0.01,0.5378108
0.01,0.542734
0.01,0.547963
0.01,0.5531151
0.01,0.557695
0.01,0.562637
0.01,0.568076
0.01,0.573247
0.01,0.5779418
0.01,0.5826934
0.01,0.587388
0.01,0.592674
0.01,0.597635
0.01,0.6021578
0.01,0.607119
0.01,0.612004
0.01,0.6162408
0.01,0.6212023
0.01,0.625935
0.01,0.6299804
0.01,0.63519
0.01,0.6395981
0.01,0.644216
0.01,0.6487959
0.01,0.6535666
0.01,0.6578221
0.01,0.662364
0.01,0.6667909

File: charging_cycle_77.csv
control/mA,Ewe/V
-0.01,-0.5841196
-0.01,-0.587497
-0.01,-0.592363
-0.01,-0.5953212
-0.01,-0.59847
-0.01,-0.602668
-0.01,-0.60658
-0.01,-0.6097477
-0.01,-0.6132971
-0.01,-0.6169037
0.01,-0.332263
0.01,0.2105612
0.01,0.260653
0.01,0.289335
0.01,0.310497
0.01,0.327328
0.01,0.342213
0.01,0.355456
0.01,0.3671731
0.01,0.378833
0.01,0.388737
0.01,0.3978963
0.01,0.406903
0.01,0.4153
0.01,0.423772
0.01,0.431558
0.01,0.4390577
0.01,0.4459275
0.01,0.452702
0.01,0.4593999
0.01,0.466117
0.01,0.472796
0.01,0.478883
0.01,0.484799
0.01,0.490638
0.01,0.4964967
0.01,0.5023551
0.01,0.50808
0.01,0.513041
0.01,0.5186518
0.01,0.52409
0.01,0.52972
0.01,0.5350056
0.01,0.5405015
0.01,0.545692
0.01,0.5506153
0.01,0.5555768
0.01,0.560462
0.01,0.5658815
0.01,0.5708812
0.01,0.5758427
0.01,0.5807279
0.01,0.5854222
0.01,0.590689
0.01,0.5954025
0.01,0.6003449
0.01,0.605478
0.01,0.6101343
0.01,0.6149623
0.01,0.6200001
0.01,0.62458
0.01,0.629561
0.01,0.6341213
0.01,0.6388347
0.01,0.643739
0.01,0.6482616
0.01,0.6530514
0.01,0.657803
0.01,0.6629935
0.01,0.6677641
0.01,0.671829

File: charging_cycle_78.csv
control/mA,Ewe/V
-0.01,-0.58828
-0.01,-0.592478
-0.01,-0.5964661
-0.01,-0.598947
-0.01,-0.603355
-0.01,-0.607572
-0.01,-0.6109118
-0.01,-0.6142703
-0.01,-0.618163
-0.01,-0.619747
0.01,-0.3341066
0.01,0.210466
0.01,0.260367
0.01,0.289888
0.01,0.311318
0.01,0.328111
0.01,0.3432052
0.01,0.3561433
0.01,0.368471
0.01,0.379501
0.01,0.389767
0.01,0.398831
0.01,0.408354
0.01,0.417265
0.01,0.425509
0.01,0.4333329
0.01,0.440966
0.01,0.448046
0.01,0.4549918
0.01,0.462091
0.01,0.468731
0.01,0.4754294
0.01,0.481994
0.01,0.488482
0.01,0.4943213
0.01,0.5001415
0.01,0.5058854
0.01,0.511629
0.01,0.517354
0.01,0.523098
0.01,0.52806
0.01,0.533651
0.01,0.5390512
0.01,0.544413
0.01,0.5494131
0.01,0.554489
0.01,0.559527
0.01,0.564927
0.01,0.570213
0.01,0.5759572
0.01,0.581052
0.01,0.5859756
0.01,0.5912806
0.01,0.5963948
0.01,0.601375
0.01,0.606585
0.01,0.6113365
0.01,0.6165461
0.01,0.6214313
0.01,0.6263165
0.01,0.6316787
0.01,0.6369837
0.01,0.641831
0.01,0.6466205
0.01,0.651391
0.01,0.6561809
0.01,0.661257
0.01,0.665894
0.01,0.6700541
0.01,0.67534
0.01,0.6799389

File: charging_cycle_79.csv
control/mA,Ewe/V
-0.01,-0.590398
-0.01,-0.5943289
-0.01,-0.5987179
-0.01,-0.6017711
-0.01,-0.6049198
-0.01,-0.608889
-0.01,-0.61303
-0.01,-0.616274
-0.01,-0.6191173
-0.01,-0.6233155
0.01,-0.3361906
0.01,0.210714
0.01,0.260234
0.01,0.2898499
0.01,0.311642
0.01,0.32876
0.01,0.34393
0.01,0.356945
0.01,0.36952
0.01,0.380245
0.01,0.391236
0.01,0.400759
0.01,0.410319
0.01,0.419135
0.01,0.4272646
0.01,0.434688
0.01,0.442703
0.01,0.4500303
0.01,0.4571672
0.01,0.463999
0.01,0.470506
0.01,0.4769369
0.01,0.483082
0.01,0.489398
0.01,0.4952754
0.01,0.50121
0.01,0.5073548
0.01,0.5131178
0.01,0.518938
0.01,0.524396
0.01,0.5297579
0.01,0.535101
0.01,0.5407114
0.01,0.546035
0.01,0.5515313
0.01,0.556455
0.01,0.562523
0.01,0.567694
0.01,0.5725604
0.01,0.57777
0.01,0.5831132
0.01,0.588246
0.01,0.593685
0.01,0.598761
0.01,0.6040851
0.01,0.609142
0.01,0.6137791
0.01,0.6188742
0.01,0.6239884
0.01,0.6286446
0.01,0.63332
0.01,0.638339
0.01,0.6440825
0.01,0.6487959
0.01,0.6538528
0.01,0.65912
0.01,0.6639285
0.01,0.6688328
0.01,0.673718
0.01,0.678985
0.01,0.683679

File: charging_cycle_80.csv
control/mA,Ewe/V
-0.01,-0.5946533
-0.01,-0.5995003
-0.01,-0.6037939
-0.01,-0.6073624
-0.01,-0.610816
-0.01,-0.615434
-0.01,-0.618163
-0.01,-0.622266
-0.01,-0.625854
-0.01,-0.6300136
0.01,-0.340759
0.01,0.211038
0.01,0.261569
0.01,0.2916437
0.01,0.3133789
0.01,0.330458
0.01,0.3451898
0.01,0.358071
0.01,0.370245
0.01,0.381065
0.01,0.391962
0.01,0.401827
0.01,0.411178
0.01,0.419479
0.01,0.4277035
0.01,0.435833
0.01,0.443657
0.01,0.451137
0.01,0.45835
0.01,0.465106
0.01,0.471842
0.01,0.4783872
0.01,0.484933
0.01,0.490619
0.01,0.4967066
0.01,0.5027177
0.01,0.508271
0.01,0.5143009
0.01,0.5199494
0.01,0.5257887
0.01,0.530941
0.01,0.5367231
0.01,0.5419136
0.01,0.5469514
0.01,0.552695
0.01,0.5577141
0.01,0.5636679
0.01,0.568801
0.01,0.573877
0.01,0.5795066
0.01,0.5851932
0.01,0.590365
0.01,0.5951735
0.01,0.6005739
0.01,0.605783
0.01,0.6108404
0.01,0.6160691
0.01,0.62126
0.01,0.625935
0.01,0.6309727
0.01,0.635533
0.01,0.6405713
0.01,0.6459526
0.01,0.651544
0.01,0.6562382
0.01,0.661162
0.01,0.6652643
0.01,0.6710464
0.01,0.675607
0.01,0.6805305
0.01,0.685664

File: charging_cycle_81.csv
control/mA,Ewe/V
-0.01,-0.5964089
-0.01,-0.6009124
-0.01,-0.6041374
-0.01,-0.608278
-0.01,-0.6121903
-0.01,-0.6160641
-0.01,-0.619518
-0.01,-0.6235636
-0.01,-0.626273
-0.01,-0.629689
0.01,-0.340198
0.01,0.210409
0.01,0.259699
0.01,0.28922
0.01,0.310402
0.01,0.328015
0.01,0.343072
0.01,0.356659
0.01,0.368585
0.01,0.37973
0.01,0.3900342
0.01,0.399652
0.01,0.4086971
0.01,0.41738
0.01,0.425452
0.01,0.433142
0.01,0.440775
0.01,0.44858
0.01,0.455698
0.01,0.46251
0.01,0.469056
0.01,0.4755057
0.01,0.481803
0.01,0.48852
0.01,0.494913
0.01,0.5004659
0.01,0.5065724
0.01,0.512278
0.01,0.5179457
0.01,0.5234797
0.01,0.5285557
0.01,0.5344332
0.01,0.539872
0.01,0.5451958
0.01,0.5504436
0.01,0.5559012
0.01,0.5610154
0.01,0.5663204
0.01,0.5716254
0.01,0.576911
0.01,0.582312
0.01,0.587674
0.01,0.592559
0.01,0.597139
0.01,0.6026157
0.01,0.607119
0.01,0.6122716
0.01,0.6168896
0.01,0.6226526
0.01,0.6277286
0.01,0.6324229
0.01,0.637404
0.01,0.6425177
0.01,0.6473265
0.01,0.6522117
0.01,0.6575358
0.01,0.6627072
0.01,0.667955
0.01,0.6721913
0.01,0.677344
0.01,0.682553

File: charging_cycle_82.csv
control/mA,Ewe/V
-0.01,-0.6009697
-0.01,-0.6041565
-0.01,-0.608278
-0.01,-0.612133
-0.01,-0.6167892
-0.01,-0.619556
-0.01,-0.6244605
-0.01,-0.6276855
-0.01,-0.6316928
-0.01,-0.6339828
0.01,-0.343485
0.01,0.209779
0.01,0.260234
0.01,0.2896782
0.01,0.3108409
0.01,0.328397
0.01,0.3428617
0.01,0.355666
0.01,0.368184
0.01,0.379501
0.01,0.390091
0.01,0.399652
0.01,0.409365
0.01,0.4175515
0.01,0.425414
0.01,0.433695
0.01,0.44108
0.01,0.448771
0.01,0.4554307
0.01,0.4621669
0.01,0.46917
0.01,0.475487
0.01,0.482204
0.01,0.4884629
0.01,0.4948365
0.01,0.5008857
0.01,0.5070686
0.01,0.5127552
0.01,0.5184991
0.01,0.524033
0.01,0.529682
0.01,0.535273
0.01,0.5406923
0.01,0.546264
0.01,0.550882
0.01,0.556474
0.01,0.5619695
0.01,0.56716
0.01,0.5724459
0.01,0.5779799
0.01,0.582922
0.01,0.588132
0.01,0.5938
0.01,0.5987801
0.01,0.6038943
0.01,0.60876
0.01,0.6141989
0.01,0.619504
0.01,0.625133
0.01,0.6296369
0.01,0.635018
0.01,0.6403041
0.01,0.645437
0.01,0.6508378
0.01,0.655628
0.01,0.6610089
0.01,0.666123
0.01,0.6713135
0.01,0.6757407
0.01,0.681446
0.01,0.686503

File: charging_cycle_83.csv
control/mA,Ewe/V
-0.01,-0.603126
-0.01,-0.6073433
-0.01,-0.609137
-0.01,-0.614614
-0.01,-0.6189456
-0.01,-0.6234873
-0.01,-0.627361
-0.01,-0.6319218
-0.01,-0.6352041
-0.01,-0.639002
0.01,-0.3473321
0.01,0.210027
0.01,0.260024
0.01,0.290212
0.01,0.3123866
0.01,0.328855
0.01,0.344083
0.01,0.356678
0.01,0.368814
0.01,0.37992
0.01,0.390015
0.01,0.399728
0.01,0.408525
0.01,0.4173034
0.01,0.425948
0.01,0.4340771
0.01,0.4417102
0.01,0.449095
0.01,0.4563276
0.01,0.463579
0.01,0.470277
0.01,0.4767652
0.01,0.483177
0.01,0.489646
0.01,0.495333
0.01,0.501554
0.01,0.5070686
0.01,0.512851
0.01,0.5191097
0.01,0.524281
0.01,0.530235
0.01,0.5360552
0.01,0.5419327
0.01,0.5474667
0.01,0.552848
0.01,0.5584965
0.01,0.5640686
0.01,0.56945
0.01,0.5746023
0.01,0.580289
0.01,0.585708
0.01,0.591357
0.01,0.5967192
0.01,0.601948
0.01,0.607482
0.01,0.6126151
0.01,0.6181109
0.01,0.6241029
0.01,0.629312
0.01,0.6348274
0.01,0.639903
0.01,0.645208
0.01,0.650208
0.01,0.655818
0.01,0.6608562
0.01,0.6664856
0.01,0.6717906
0.01,0.6759125
0.01,0.681198
0.01,0.6861599
0.01,0.691961

File: charging_cycle_84.csv
control/mA,Ewe/V
-0.01,-0.607267
-0.01,-0.6124
-0.01,-0.6158733
-0.01,-0.620434
-0.01,-0.6240025
-0.01,-0.627953
-0.01,-0.6325134
-0.01,-0.6353758
-0.01,-0.6397458
-0.01,-0.6445737
0.01,-0.35134
0.01,0.210638
0.01,0.260672
0.01,0.29067
0.01,0.312902
0.01,0.3300763
0.01,0.345056
0.01,0.358987
0.01,0.371333
0.01,0.3820004
0.01,0.392725
0.01,0.402533
0.01,0.412227
0.01,0.420776
0.01,0.429516
0.01,0.4375311
0.01,0.445641
0.01,0.4532362
0.01,0.4603731
0.01,0.46772
0.01,0.474571
0.01,0.480982
0.01,0.4876805
0.01,0.494245
0.01,0.500752
0.01,0.506515
0.01,0.5130033
0.01,0.5185182
0.01,0.524167
0.01,0.529911
0.01,0.535578
0.01,0.5414175
0.01,0.547448
0.01,0.552619
0.01,0.5580194
0.01,0.5634198
0.01,0.568171
0.01,0.574125
0.01,0.5795066
0.01,0.5847352
0.01,0.590307
0.01,0.5965093
0.01,0.601375
0.01,0.60649
0.01,0.61231
0.01,0.6173667
0.01,0.621927
0.01,0.6274996
0.01,0.6327283
0.01,0.6380142
0.01,0.644121
0.01,0.649006
0.01,0.6544253
0.01,0.659597
0.01,0.6651689
0.01,0.67097
0.01,0.6766376
0.01,0.6824006
0.01,0.687572
0.01,0.6915985
0.01,0.698125

File: charging_cycle_85.csv
control/mA,Ewe/V
-0.01,-0.612343
-0.01,-0.6158542
-0.01,-0.621617
-0.01,-0.624747
-0.01,-0.6298991
-0.01,-0.6334866
-0.01,-0.636788
-0.01,-0.640643
-0.01,-0.645051
-0.01,-0.6492871
0.01,-0.3547865
0.01,0.211878
0.01,0.26218
0.01,0.29069
0.01,0.312902
0.01,0.331336
0.01,0.3459722
0.01,0.359731
0.01,0.3720392
0.01,0.3829545
0.01,0.393221
0.01,0.4031631
0.01,0.412781
0.01,0.421883
0.01,0.430528
0.01,0.4391913
0.01,0.446424
0.01,0.4546292
0.01,0.4618234
0.01,0.469208
0.01,0.476155
0.01,0.482967
0.01,0.489417
0.01,0.495371
0.01,0.5021834
0.01,0.50808
0.01,0.5141864
0.01,0.5203501
0.01,0.526132
0.01,0.531704
0.01,0.5372192
0.01,0.54262
0.01,0.548707
0.01,0.554375
0.01,0.560462
0.01,0.5659769
0.01,0.5709384
0.01,0.5767014
0.01,0.582312
0.01,0.587808
0.01,0.5934942
0.01,0.5988946
0.01,0.6041996
0.01,0.609791
0.01,0.6151149
0.01,0.6203054
0.01,0.626221
0.01,0.6319077
0.01,0.636717
0.01,0.6423269
0.01,0.647765
0.01,0.6529369
0.01,0.65807
0.01,0.663547
0.01,0.669081
0.01,0.6748248
0.01,0.679462
0.01,0.6854729
0.01,0.690511
0.01,0.696216
0.01,0.70156

File: charging_cycle_86.csv
control/mA,Ewe/V
-0.01,-0.6159878
-0.01,-0.6210447
-0.01,-0.6262924
-0.01,-0.627304
-0.01,-0.633697
-0.01,-0.6379329
-0.01,-0.641654
-0.01,-0.645261
-0.01,-0.6502222
-0.01,-0.6539433
0.01,-0.358233
0.01,0.210809
0.01,0.261321
0.01,0.292159
0.01,0.312711
0.01,0.3301717
0.01,0.344694
0.01,0.358281
0.01,0.371066
0.01,0.3824393
0.01,0.393278
0.01,0.4027242
0.01,0.411884
0.01,0.421101
0.01,0.429936
0.01,0.437817
0.01,0.4461374
0.01,0.454114
0.01,0.461041
0.01,0.468426
0.01,0.475677
0.01,0.482738
0.01,0.4894552
0.01,0.4960578
0.01,0.503004
0.01,0.5092058
0.01,0.5152169
0.01,0.521247
0.01,0.5272199
0.01,0.5332691
0.01,0.5393183
0.01,0.5447951
0.01,0.550806
0.01,0.5561493
0.01,0.5616642
0.01,0.5668547
0.01,0.5727322
0.01,0.5783425
0.01,0.58338
0.01,0.5887617
0.01,0.595193
0.01,0.6004594
0.01,0.6062224
0.01,0.6112411
0.01,0.6166415
0.01,0.6222328
0.01,0.6279385
0.01,0.632747
0.01,0.6377279
0.01,0.643338
0.01,0.6487959
0.01,0.6544253
0.01,0.660398
0.01,0.665531
0.01,0.6716189
0.01,0.6766758
0.01,0.6821716
0.01,0.688106
0.01,0.693946
0.01,0.700033
0.01,0.7056815

File: charging_cycle_87.csv
control/mA,Ewe/V
-0.01,-0.619213
-0.01,-0.62364
-0.01,-0.6283152
-0.01,-0.631483
-0.01,-0.6362345
-0.01,-0.639841
-0.01,-0.6421884
-0.01,-0.6474361
-0.01,-0.6505084
-0.01,-0.653409
0.01,-0.35679
0.01,0.21226
0.01,0.262943
0.01,0.292636
0.01,0.31294
0.01,0.33145
0.01,0.3455142
0.01,0.359063
0.01,0.371066
0.01,0.382172
0.01,0.392629
0.01,0.403449
0.01,0.412647
0.01,0.422227
0.01,0.430928
0.01,0.4395157
0.01,0.447759
0.01,0.455259
0.01,0.4629302
0.01,0.4704488
0.01,0.4777193
0.01,0.484513
0.01,0.4916497
0.01,0.497909
0.01,0.5044542
0.01,0.510389
0.01,0.516572
0.01,0.522621
0.01,0.5284221
0.01,0.534281
0.01,0.5397191
0.01,0.5456157
0.01,0.551684
0.01,0.5572752
0.01,0.563286
0.01,0.5690111
0.01,0.5749076
0.01,0.580289
0.01,0.5858611
0.01,0.591643
0.01,0.5974825
0.01,0.6022723
0.01,0.608703
0.01,0.6145615
0.01,0.6201337
0.01,0.6260875
0.01,0.631469
0.01,0.6371555
0.01,0.642938
0.01,0.649044
0.01,0.6545398
0.01,0.6600929
0.01,0.6658559
0.01,0.6715616
0.01,0.677286
0.01,0.6830494
0.01,0.688125
0.01,0.6943273
0.01,0.700472
0.01,0.7065021
0.01,0.7122078

File: charging_cycle_88.csv
control/mA,Ewe/V
-0.01,-0.6212355
-0.01,-0.624861
-0.01,-0.629403
-0.01,-0.632952
-0.01,-0.6378184
-0.01,-0.6413105
-0.01,-0.6446691
-0.01,-0.6482376
-0.01,-0.6534662
-0.01,-0.6575881
0.01,-0.359516
0.01,0.212508
0.01,0.2638211
0.01,0.292579
0.01,0.314448
0.01,0.332233
0.01,0.3472889
0.01,0.360437
0.01,0.372879
0.01,0.3839468
0.01,0.394709
0.01,0.405205
0.01,0.415433
0.01,0.424555
0.01,0.4333329
0.01,0.441787
0.01,0.4500303
0.01,0.457778
0.01,0.4649339
0.01,0.4723189
0.01,0.479437
0.01,0.486822
0.01,0.4940923
0.01,0.5005423
0.01,0.5071831
0.01,0.5138238
0.01,0.5199112
0.01,0.5259795
0.01,0.531952
0.01,0.538078
0.01,0.5438982
0.01,0.5501573
0.01,0.5557295
0.01,0.5622176
0.01,0.567923
0.01,0.5739153
0.01,0.579716
0.01,0.585041
0.01,0.590784
0.01,0.5978451
0.01,0.6029783
0.01,0.607997
0.01,0.614352
0.01,0.6203054
0.01,0.6254959
0.01,0.63124
0.01,0.6368501
0.01,0.6427849
0.01,0.6486814
0.01,0.654234
0.01,0.6600738
0.01,0.666123
0.01,0.6716761
0.01,0.677286
0.01,0.682649
0.01,0.6883735
0.01,0.6937548
0.01,0.700014
0.01,0.7059296
0.01,0.7124368
0.01,0.7183143

File: charging_cycle_89.csv
control/mA,Ewe/V
-0.01,-0.62427
-0.01,-0.630052
-0.01,-0.6339064
-0.01,-0.6373604
-0.01,-0.643391
-0.01,-0.646005
-0.01,-0.650356
-0.01,-0.6538097
-0.01,-0.657645
-0.01,-0.662359
0.01,-0.362962
0.01,0.213424
0.01,0.2638211
0.01,0.2935138
0.01,0.314219
0.01,0.3322899
0.01,0.347766
0.01,0.3611239
0.01,0.372898
0.01,0.3845193
0.01,0.395606
0.01,0.406178
0.01,0.4154142
0.01,0.424822
0.01,0.4336
0.01,0.4427216
0.01,0.451175
0.01,0.45898
0.01,0.467052
0.01,0.4746661
0.01,0.481746
0.01,0.488959
0.01,0.495695
0.01,0.502317
0.01,0.508843
0.01,0.5151596
0.01,0.5217432
0.01,0.5280023
0.01,0.534471
0.01,0.5402343
0.01,0.546055
0.01,0.552218
0.01,0.5583057
0.01,0.5643167
0.01,0.570385
0.01,0.5757282
0.01,0.5820064
0.01,0.587731
0.01,0.5939331
0.01,0.5994671
0.01,0.6053446
0.01,0.61063
0.01,0.6158973
0.01,0.622519
0.01,0.6284919
0.01,0.6343312
0.01,0.6403423
0.01,0.646143
0.01,0.651735
0.01,0.6568298
0.01,0.6632797
0.01,0.6683557
0.01,0.673813
0.01,0.680416
0.01,0.686771
0.01,0.691923
0.01,0.69801
0.01,0.7034679
0.01,0.7103186
0.01,0.7165205
0.01,0.722532

File: charging_cycle_90.csv
control/mA,Ewe/V
-0.01,-0.6272275
-0.01,-0.631368
-0.01,-0.6356048
-0.01,-0.640509
-0.01,-0.6432
-0.01,-0.650489
-0.01,-0.6551455
-0.01,-0.65963
-0.01,-0.664801
-0.01,-0.668694
0.01,-0.368012
0.01,0.214301
0.01,0.265615
0.01,0.294792
0.01,0.3168138
0.01,0.334122
0.01,0.349388
0.01,0.3633375
0.01,0.376085
0.01,0.38763
0.01,0.397915
0.01,0.4081437
0.01,0.418391
0.01,0.4279134
0.01,0.4366342
0.01,0.4445917
0.01,0.4533316
0.01,0.4613845
0.01,0.468407
0.01,0.4760591
0.01,0.483062
0.01,0.4899895
0.01,0.497451
0.01,0.5046641
0.01,0.5114
0.01,0.5174305
0.01,0.524281
0.01,0.530598
0.01,0.5367613
0.01,0.5430586
0.01,0.548707
0.01,0.5548517
0.01,0.5605574
0.01,0.5668547
0.01,0.5728467
0.01,0.5788005
0.01,0.584602
0.01,0.5908417
0.01,0.5967192
0.01,0.602234
0.01,0.6083215
0.01,0.6134929
0.01,0.6199619
0.01,0.626126
0.01,0.631736
0.01,0.6370219
0.01,0.643014
0.01,0.6491585
0.01,0.654597
0.01,0.661123
0.01,0.666867
0.01,0.6732409
0.01,0.6795191
0.01,0.68532
0.01,0.691847
0.01,0.697381
0.01,0.7038114
0.01,0.7100324
0.01,0.716139
0.01,0.7224934
0.01,0.7285045

File: charging_cycle_91.csv
control/mA,Ewe/V
-0.01,-0.63196
-0.01,-0.6361391
-0.01,-0.6402419
-0.01,-0.643849
-0.01,-0.6497642
-0.01,-0.6544585
-0.01,-0.6588476
-0.01,-0.664153
-0.01,-0.6673966
-0.01,-0.6731024
0.01,-0.371378
0.01,0.21474
0.01,0.265119
0.01,0.296109
0.01,0.317348
0.01,0.3349233
0.01,0.349388
0.01,0.362212
0.01,0.37431
0.01,0.38555
0.01,0.396408
0.01,0.40719
0.01,0.417723
0.01,0.426768
0.01,0.436577
0.01,0.4453741
0.01,0.453751
0.01,0.461728
0.01,0.4696855
0.01,0.477433
0.01,0.484627
0.01,0.4914398
0.01,0.498615
0.01,0.505523
0.01,0.512946
0.01,0.519549
0.01,0.5255215
0.01,0.531933
0.01,0.5377345
0.01,0.54407
0.01,0.5502146
0.01,0.5563783
0.01,0.563229
0.01,0.569278
0.01,0.5750794
0.01,0.581052
0.01,0.587025
0.01,0.592292
0.01,0.5977306
0.01,0.6034936
0.01,0.609753
0.01,0.615287
0.01,0.6215267
0.01,0.626584
0.01,0.6322703
0.01,0.638052
0.01,0.644006
0.01,0.650094
0.01,0.6560283
0.01,0.6617722
0.01,0.668337
0.01,0.6742523
0.01,0.6808358
0.01,0.6874003
0.01,0.6936212
0.01,0.6997468
0.01,0.7059296
0.01,0.7121315
0.01,0.7193066
0.01,0.7248787
0.01,0.732035

File: charging_cycle_92.csv
control/mA,Ewe/V
-0.01,-0.6389824
-0.01,-0.6435623
-0.01,-0.646234
-0.01,-0.6519778
-0.01,-0.656863
-0.01,-0.6612138
-0.01,-0.665603
-0.01,-0.670564
-0.01,-0.6759457
-0.01,-0.6786745
0.01,-0.374825
0.01,0.215084
0.01,0.266111
0.01,0.2961663
0.01,0.317673
0.01,0.334236
0.01,0.349102
0.01,0.3625169
0.01,0.3751497
0.01,0.3863894
0.01,0.397247
0.01,0.408335
0.01,0.4184293
0.01,0.427837
0.01,0.4366342
0.01,0.4456031
0.01,0.4539613
0.01,0.4617089
0.01,0.470277
0.01,0.4777193
0.01,0.485524
0.01,0.4928519
0.01,0.499893
0.01,0.506859
0.01,0.513728
0.01,0.519778
0.01,0.5268955
0.01,0.5330401
0.01,0.5393565
0.01,0.5460164
0.01,0.55239
0.01,0.558611
0.01,0.5648701
0.01,0.5711674
0.01,0.5768731
0.01,0.5824262
0.01,0.589601
0.01,0.5954406
0.01,0.601604
0.01,0.607673
0.01,0.614352
0.01,0.6197329
0.01,0.6261447
0.01,0.631755
0.01,0.6381859
0.01,0.6442924
0.01,0.6496546
0.01,0.6559138
0.01,0.66223
0.01,0.66786
0.01,0.674042
0.01,0.680206
0.01,0.687114
0.01,0.694136
0.01,0.700472
0.01,0.7075898
0.01,0.7137535
0.01,0.7200699
0.01,0.7255848
0.01,0.7329316
0.01,0.738885

File: charging_cycle_93.csv
control/mA,Ewe/V
-0.01,-0.641616
-0.01,-0.645833
-0.01,-0.6497642
-0.01,-0.6555272
-0.01,-0.658809
-0.01,-0.6641335
-0.01,-0.6687515
-0.01,-0.6731405
-0.01,-0.67772
-0.01,-0.6818995
0.01,-0.3774702
0.01,0.215599
0.01,0.265958
0.01,0.295346
0.01,0.316318
0.01,0.334637
0.01,0.348567
0.01,0.3619635
0.01,0.375531
0.01,0.388584
0.01,0.398469
0.01,0.409651
0.01,0.419765
0.01,0.4290393
0.01,0.438313
0.01,0.448046
0.01,0.457263
0.01,0.46522
0.01,0.473502
0.01,0.481536
0.01,0.489054
0.01,0.4959433
0.01,0.503653
0.01,0.51037
0.01,0.517469
0.01,0.5242239
0.01,0.5302922
0.01,0.537658
0.01,0.54407
0.01,0.5501573
0.01,0.5564928
0.01,0.562809
0.01,0.5688584
0.01,0.5753084
0.01,0.5814721
0.01,0.5880556
0.01,0.5938377
0.01,0.6010891
0.01,0.606948
0.01,0.6133784
0.01,0.618951
0.01,0.6251906
0.01,0.631412
0.01,0.636468
0.01,0.642918
0.01,0.6488341
0.01,0.655723
0.01,0.661142
0.01,0.6670772
0.01,0.6731455
0.01,0.680034
0.01,0.6862171
0.01,0.6928198
0.01,0.6991934
0.01,0.7058533
0.01,0.7126085
0.01,0.7201271
0.01,0.7269206
0.01,0.733466
0.01,0.7414234
0.01,0.7480642

File: charging_cycle_94.csv
control/mA,Ewe/V
-0.01,-0.641291
-0.01,-0.646749
-0.01,-0.6509855
-0.01,-0.6555272
-0.01,-0.6597635
-0.01,-0.6659463
-0.01,-0.6670913
-0.01,-0.6739229
-0.01,-0.679839
-0.01,-0.683865
0.01,-0.377791
0.01,0.216381
0.01,0.2685536
0.01,0.296987
0.01,0.318226
0.01,0.336507
0.01,0.352002
0.01,0.365589
0.01,0.37826
0.01,0.389996
0.01,0.401484
0.01,0.412418
0.01,0.422093
0.01,0.431844
0.01,0.4413858
0.01,0.450546
0.01,0.459533
0.01,0.467968
0.01,0.4760591
0.01,0.483349
0.01,0.490505
0.01,0.498768
0.01,0.505943
0.01,0.512698
0.01,0.519129
0.01,0.5259032
0.01,0.532658
0.01,0.5393756
0.01,0.545864
0.01,0.551818
0.01,0.5593552
0.01,0.56613
0.01,0.5721788
0.01,0.5784761
0.01,0.5838765
0.01,0.590823
0.01,0.5966238
0.01,0.602578
0.01,0.6088367
0.01,0.6154966
0.01,0.62105
0.01,0.6276523
0.01,0.632862
0.01,0.640075
0.01,0.645972
0.01,0.6526315
0.01,0.6590815
0.01,0.6660849
0.01,0.6720005
0.01,0.678584
0.01,0.6843661
0.01,0.6911786
0.01,0.69761
0.01,0.7047465
0.01,0.711712
0.01,0.718753
0.01,0.725508
0.01,0.732836
0.01,0.739248
0.01,0.7467284
0.01,0.753579