Folder: Battery_Analysis1 (part 7)

File: charging_cycle_143.csv
control/mA,Ewe/V
-0.04,-2.48455
-0.04,-2.50337
-0.04,-2.52213
-0.04,-2.54051
-0.04,-2.55903
-0.04,-2.57827
-0.04,-2.59663
-0.04,-2.613535
-0.04,-2.6326
-0.04,-2.64788
0.04,-1.97231
0.04,-0.972287
0.04,0.0277426
0.04,0.3848437
0.04,0.5605956
0.04,0.669768
0.04,0.7504496
0.04,0.8244142
0.04,0.896566
0.04,0.9640425
0.04,1.01971
0.04,1.07035
0.04,1.12405
0.04,1.18475
0.04,1.25271
0.04,1.32614
0.04,1.40701
0.04,1.49168
0.04,1.58711
0.04,1.69239
0.04,1.79529
0.04,1.89562
0.04,1.97949
0.04,2.04563
0.04,2.098167
0.04,2.13961
0.04,2.1765
0.04,2.21117
0.04,2.24691
0.04,2.282179
0.04,2.31313
0.04,2.35719
0.04,2.40124
0.04,2.44686
0.04,2.49715
0.04,2.55233
0.04,2.60909
0.04,2.669711
0.04,2.73095
0.04,2.803252
0.04,2.87483
0.04,2.947441
0.04,3.020089
0.04,3.08997
0.04,3.16067
0.04,3.224236
0.04,3.28933
0.04,3.352987
0.04,3.4142
0.04,3.47466
0.04,3.52885
0.04,3.58694
0.04,3.60261
0.04,3.61812
0.04,3.648941
0.04,3.68369
0.04,3.717009
0.04,3.75302
0.04,3.78836
0.04,3.82271
0.04,3.84687
0.04,3.87578

File: charging_cycle_144.csv
control/mA,Ewe/V
-0.04,-2.47975
-0.04,-2.49787
-0.04,-2.51638
-0.04,-2.5348
-0.04,-2.553
-0.04,-2.57121
-0.04,-2.58989
-0.04,-2.60747
-0.04,-2.626015
-0.04,-2.64231
0.04,-1.99018
0.04,-0.9901297
0.04,0.009919372
0.04,0.3937935
0.04,0.5716445
0.04,0.6805877
0.04,0.7620519
0.04,0.8368561
0.04,0.911031
0.04,0.977343
0.04,1.0339
0.04,1.08772
0.04,1.14401
0.04,1.20658
0.04,1.27576
0.04,1.34692
0.04,1.43018
0.04,1.52091
0.04,1.619534
0.04,1.72201
0.04,1.82719
0.04,1.92327
0.04,1.99938
0.04,2.05676
0.04,2.09859
0.04,2.13887
0.04,2.172265
0.04,2.20215
0.04,2.23398
0.04,2.26334
0.04,2.2964
0.04,2.32567
0.04,2.36666
0.04,2.40872
0.04,2.45406
0.04,2.50226
0.04,2.55579
0.04,2.61122
0.04,2.671524
0.04,2.7344
0.04,2.79917
0.04,2.86281
0.04,2.92813
0.04,2.99513
0.04,3.0611
0.04,3.12543
0.04,3.18695
0.04,3.24721
0.04,3.30545
0.04,3.36251
0.04,3.418288
0.04,3.47159
0.04,3.52141
0.04,3.57267
0.04,3.6202
0.04,3.66524
0.04,3.69842
0.04,3.7429
0.04,3.78365
0.04,3.81811
0.04,3.855664
0.04,3.891387

File: charging_cycle_145.csv
control/mA,Ewe/V
-0.04,-2.53671
-0.04,-2.55598
-0.04,-2.57359
-0.04,-2.59136
-0.04,-2.60804
-0.04,-2.62588
-0.04,-2.643514
-0.04,-2.65708
-0.04,-2.67786
-0.04,-2.67884
0.04,-2.03162
0.04,-1.03148
0.04,-0.031471
0.04,0.384424
0.04,0.572198
0.04,0.6882781
0.04,0.7761731
0.04,0.85384
0.04,0.9265831
0.04,0.99364
0.04,1.04963
0.04,1.10457
0.04,1.16405
0.04,1.22845
0.04,1.29996
0.04,1.38222
0.04,1.46825
0.04,1.56543
0.04,1.66323
0.04,1.76214
0.04,1.86196
0.04,1.95073
0.04,2.02004
0.04,2.07365
0.04,2.11345
0.04,2.14723
0.04,2.17746
0.04,2.206478
0.04,2.23588
0.04,2.26752
0.04,2.30021
0.04,2.33571
0.04,2.37517
0.04,2.41837
0.04,2.46396
0.04,2.51323
0.04,2.56649
0.04,2.62372
0.04,2.68551
0.04,2.75201
0.04,2.819224
0.04,2.88844
0.04,2.95832
0.04,3.02894
0.04,3.09884
0.04,3.166129
0.04,3.22744
0.04,3.28185
0.04,3.33808
0.04,3.39667
0.04,3.4517
0.04,3.507767
0.04,3.55868
0.04,3.60969
0.04,3.65808
0.04,3.69629
0.04,3.737313
0.04,3.773322
0.04,3.81122
0.04,3.84418
0.04,3.87837
0.04,3.90736
0.04,3.90864

File: charging_cycle_146.csv
control/mA,Ewe/V
-0.04,-2.55592
-0.04,-2.5752
-0.04,-2.59472
-0.04,-2.6142
-0.04,-2.63287
-0.04,-2.65126
-0.04,-2.66992
-0.04,-2.687805
-0.04,-2.70101
-0.04,-2.70299
0.04,-2.07041
0.04,-1.07035
0.04,-0.07030439
0.04,0.379481
0.04,0.571072
0.04,0.689461
0.04,0.7808484
0.04,0.859545
0.04,0.9343879
0.04,1.00022
0.04,1.058292
0.04,1.1142
0.04,1.175708
0.04,1.24309
0.04,1.31929
0.04,1.40344
0.04,1.49389
0.04,1.59309
0.04,1.69449
0.04,1.79931
0.04,1.89578
0.04,1.97737
0.04,2.0388
0.04,2.08687
0.04,2.12263
0.04,2.15351
0.04,2.18236
0.04,2.21094
0.04,2.23987
0.04,2.27111
0.04,2.30487
0.04,2.34204
0.04,2.38313
0.04,2.42597
0.04,2.474495
0.04,2.52676
0.04,2.58214
0.04,2.64403
0.04,2.70996
0.04,2.77965
0.04,2.84888
0.04,2.913302
0.04,2.98522
0.04,3.05341
0.04,3.12107
0.04,3.186891
0.04,3.252364
0.04,3.3166
0.04,3.38121
0.04,3.44376
0.04,3.50365
0.04,3.56131
0.04,3.61417
0.04,3.66692
0.04,3.716055
0.04,3.76286
0.04,3.80187
0.04,3.841562
0.04,3.8828
0.04,3.92169
0.04,3.95869
0.04,3.99617
0.04,3.99955

File: charging_cycle_147.csv
control/mA,Ewe/V
-0.04,-2.59205
-0.04,-2.61235
-0.04,-2.631797
-0.04,-2.65065
-0.04,-2.66991
-0.04,-2.68821
-0.04,-2.70563
-0.04,-2.724062
-0.04,-2.741866
-0.04,-2.74435
0.04,-2.11217
0.04,-1.11216
0.04,-0.112096
0.04,0.3687
0.04,0.570347
0.04,0.6920946
0.04,0.7866495
0.04,0.8688197
0.04,0.9455704
0.04,1.01326
0.04,1.07188
0.04,1.12947
0.04,1.19439
0.04,1.2662
0.04,1.3472
0.04,1.43579
0.04,1.53456
0.04,1.637739
0.04,1.74443
0.04,1.84759
0.04,1.93739
0.04,2.00924
0.04,2.06422
0.04,2.10383
0.04,2.132802
0.04,2.16452
0.04,2.191367
0.04,2.21797
0.04,2.247525
0.04,2.2779
0.04,2.31012
0.04,2.344217
0.04,2.387592
0.04,2.4333
0.04,2.48039
0.04,2.53461
0.04,2.59256
0.04,2.65485
0.04,2.71765
0.04,2.79178
0.04,2.863954
0.04,2.935438
0.04,3.00667
0.04,3.07898
0.04,3.14718
0.04,3.21792
0.04,3.29015
0.04,3.36236
0.04,3.433955
0.04,3.49981
0.04,3.56927
0.04,3.63528
0.04,3.69745
0.04,3.7558
0.04,3.81057
0.04,3.85908
0.04,3.90629
0.04,3.94965
0.04,3.9922
0.04,4.031855
0.04,4.06935
0.04,4.1063
0.04,4.11137

File: charging_cycle_148.csv
control/mA,Ewe/V
-0.04,-2.61514
-0.04,-2.636
-0.04,-2.653704
-0.04,-2.67565
-0.04,-2.6963
-0.04,-2.71635
-0.04,-2.736256
-0.04,-2.755701
-0.04,-2.77267
-0.04,-2.778467
0.04,-2.14319
0.04,-1.1431
0.04,-0.1430668
0.04,0.370742
0.04,0.5783807
0.04,0.7011971
0.04,0.7976793
0.04,0.8813571
0.04,0.9585657
0.04,1.02801
0.04,1.08915
0.04,1.14909
0.04,1.21859
0.04,1.29801
0.04,1.37468
0.04,1.466128
0.04,1.56608
0.04,1.67297
0.04,1.77836
0.04,1.8808
0.04,1.962813
0.04,2.03103
0.04,2.08172
0.04,2.11994
0.04,2.15124
0.04,2.18074
0.04,2.20862
0.04,2.23636
0.04,2.26487
0.04,2.295976
0.04,2.33048
0.04,2.36851
0.04,2.410644
0.04,2.4578
0.04,2.50882
0.04,2.564947
0.04,2.62674
0.04,2.69431
0.04,2.76772
0.04,2.843631
0.04,2.92031
0.04,2.99521
0.04,3.07007
0.04,3.14626
0.04,3.22063
0.04,3.298582
0.04,3.37739
0.04,3.45411
0.04,3.52862
0.04,3.60994
0.04,3.68111
0.04,3.7522
0.04,3.81761
0.04,3.87725
0.04,3.929934
0.04,3.97684
0.04,4.01985
0.04,4.060746
0.04,4.099217
0.04,4.1365
0.04,4.17104
0.04,4.204963
0.04,4.210497

File: charging_cycle_149.csv
control/mA,Ewe/V
-0.04,-2.61813
-0.04,-2.639602
-0.04,-2.66162
-0.04,-2.68282
-0.04,-2.70319
-0.04,-2.72345
-0.04,-2.74353
-0.04,-2.76265
-0.04,-2.782188
-0.04,-2.787474
0.04,-2.16019
0.04,-1.16018
0.04,-0.160146
0.04,0.368776
0.04,0.5830941
0.04,0.705643
0.04,0.7992632
0.04,0.8828455
0.04,0.9621342
0.04,1.03274
0.04,1.09548
0.04,1.16006
0.04,1.23124
0.04,1.31047
0.04,1.39867
0.04,1.49454
0.04,1.59503
0.04,1.70613
0.04,1.81546
0.04,1.91243
0.04,1.99323
0.04,2.05557
0.04,2.101201
0.04,2.137649
0.04,2.16765
0.04,2.19633
0.04,2.223576
0.04,2.2472
0.04,2.278706
0.04,2.310937
0.04,2.34637
0.04,2.38566
0.04,2.431139
0.04,2.48062
0.04,2.53485
0.04,2.5939
0.04,2.65979
0.04,2.73209
0.04,2.808519
0.04,2.8872
0.04,2.96509
0.04,3.04274
0.04,3.119548
0.04,3.19702
0.04,3.27845
0.04,3.36062
0.04,3.4447
0.04,3.527651
0.04,3.60868
0.04,3.68207
0.04,3.756911
0.04,3.82834
0.04,3.89173
0.04,3.94925
0.04,3.99949
0.04,4.04586
0.04,4.087271
0.04,4.12582
0.04,4.16482
0.04,4.19983
0.04,4.235839
0.04,4.269825
0.04,4.260341

File: charging_cycle_150.csv
control/mA,Ewe/V
-0.04,-2.64613
-0.04,-2.67053
-0.04,-2.69422
-0.04,-2.71723
-0.04,-2.73948
-0.04,-2.76082
-0.04,-2.782
-0.04,-2.80242
-0.04,-2.82337
-0.04,-2.83022
0.04,-2.1957
0.04,-1.19559
0.04,-0.195563
0.04,0.3668487
0.04,0.5888
0.04,0.7130665
0.04,0.8056368
0.04,0.8891428
0.04,0.969538
0.04,1.041
0.04,1.10609
0.04,1.17168
0.04,1.24257
0.04,1.32354
0.04,1.41449
0.04,1.51576
0.04,1.6245
0.04,1.73851
0.04,1.84855
0.04,1.94457
0.04,2.02096
0.04,2.0792
0.04,2.12185
0.04,2.15465
0.04,2.18555
0.04,2.21447
0.04,2.24212
0.04,2.26981
0.04,2.30134
0.04,2.33445
0.04,2.37179
0.04,2.41347
0.04,2.46005
0.04,2.512145
0.04,2.57019
0.04,2.63559
0.04,2.70832
0.04,2.789188
0.04,2.872236
0.04,2.95372
0.04,3.03677
0.04,3.1198
0.04,3.20221
0.04,3.28893
0.04,3.3755
0.04,3.4675
0.04,3.55173
0.04,3.64325
0.04,3.73092
0.04,3.81242
0.04,3.88992
0.04,3.9573
0.04,4.0163
0.04,4.0684
0.04,4.114922
0.04,4.15179
0.04,4.196681
0.04,4.232175
0.04,4.269253
0.04,4.30564
0.04,4.339477
0.04,4.369437
0.04,4.378597

File: charging_cycle_151.csv
control/mA,Ewe/V
-0.04,-2.67275
-0.04,-2.6987
-0.04,-2.723146
-0.04,-2.749232
-0.04,-2.77173
-0.04,-2.79474
-0.04,-2.8169
-0.04,-2.83926
-0.04,-2.86106
-0.04,-2.8705
0.04,-2.23056
0.04,-1.23053
0.04,-0.230466
0.04,0.372745
0.04,0.6015089
0.04,0.727188
0.04,0.821838
0.04,0.907061
0.04,0.987056
0.04,1.05915
0.04,1.12502
0.04,1.193703
0.04,1.27362
0.04,1.352853
0.04,1.452732
0.04,1.56022
0.04,1.67043
0.04,1.76964
0.04,1.88423
0.04,1.96569
0.04,2.039163
0.04,2.09258
0.04,2.133966
0.04,2.16826
0.04,2.199057
0.04,2.228404
0.04,2.25709
0.04,2.28706
0.04,2.318627
0.04,2.35397
0.04,2.39271
0.04,2.435337
0.04,2.48348
0.04,2.53701
0.04,2.59746
0.04,2.66633
0.04,2.745107
0.04,2.8294
0.04,2.91492
0.04,3.00173
0.04,3.08789
0.04,3.172579
0.04,3.26215
0.04,3.35469
0.04,3.447828
0.04,3.54664
0.04,3.646193
0.04,3.74203
0.04,3.834864
0.04,3.92232
0.04,3.99695
0.04,4.06172
0.04,4.119063
0.04,4.16904
0.04,4.2138
0.04,4.25622
0.04,4.29484
0.04,4.33247
0.04,4.36825
0.04,4.40171
0.04,4.43327
0.04,4.46508
0.04,4.47319

File: charging_cycle_152.csv
control/mA,Ewe/V
-0.04,-2.704674
-0.04,-2.73332
-0.04,-2.760548
-0.04,-2.78501
-0.04,-2.81047
-0.04,-2.83465
-0.04,-2.858
-0.04,-2.87964
-0.04,-2.9046
-0.04,-2.91449
0.04,-2.26848
0.04,-1.268413
0.04,-0.2684021
0.04,0.378317
0.04,0.6108404
0.04,0.735565
0.04,0.8273911
0.04,0.9111643
0.04,0.9927429
0.04,1.064036
0.04,1.132333
0.04,1.20563
0.04,1.28507
0.04,1.37449
0.04,1.47313
0.04,1.58186
0.04,1.69873
0.04,1.81349
0.04,1.915049
0.04,2.00212
0.04,2.065631
0.04,2.117116
0.04,2.15669
0.04,2.18965
0.04,2.219645
0.04,2.24833
0.04,2.27762
0.04,2.308437
0.04,2.34475
0.04,2.38278
0.04,2.42221
0.04,2.46652
0.04,2.51671
0.04,2.57264
0.04,2.635324
0.04,2.70917
0.04,2.79108
0.04,2.87664
0.04,2.96614
0.04,3.055163
0.04,3.14554
0.04,3.23612
0.04,3.329439
0.04,3.4272
0.04,3.52927
0.04,3.63503
0.04,3.74102
0.04,3.842974
0.04,3.934323
0.04,4.01867
0.04,4.090515
0.04,4.151847
0.04,4.204734
0.04,4.25288
0.04,4.295148
0.04,4.33335
0.04,4.370601
0.04,4.406667
0.04,4.439566
0.04,4.470537
0.04,4.50111
0.04,4.529541
0.04,4.53893

File: charging_cycle_153.csv
control/mA,Ewe/V
-0.04,-2.744
-0.04,-2.77497
-0.04,-2.80467
-0.04,-2.83257
-0.04,-2.8601
-0.04,-2.88638
-0.04,-2.9109
-0.04,-2.93533
-0.04,-2.95893
-0.04,-2.971584
0.04,-2.326428
0.04,-1.32629
0.04,-0.32628
0.04,0.382497
0.04,0.6243891
0.04,0.747816
0.04,0.839127
0.04,0.9236825
0.04,1.00156
0.04,1.07329
0.04,1.143
0.04,1.21532
0.04,1.29692
0.04,1.38961
0.04,1.49239
0.04,1.60415
0.04,1.721035
0.04,1.83515
0.04,1.93902
0.04,2.021817
0.04,2.08355
0.04,2.12941
0.04,2.167399
0.04,2.200219
0.04,2.23129
0.04,2.26247
0.04,2.29386
0.04,2.32742
0.04,2.363319
0.04,2.40248
0.04,2.44587
0.04,2.4926
0.04,2.54567
0.04,2.60462
0.04,2.67234
0.04,2.751
0.04,2.836933
0.04,2.92662
0.04,3.01742
0.04,3.109377
0.04,3.20239
0.04,3.29633
0.04,3.39665
0.04,3.50193
0.04,3.610203
0.04,3.72312
0.04,3.83404
0.04,3.93707
0.04,4.02676
0.04,4.102232
0.04,4.165205
0.04,4.219733
0.04,4.26649
0.04,4.30608
0.04,4.348713
0.04,4.38209
0.04,4.416266
0.04,4.4501
0.04,4.48115
0.04,4.51063
0.04,4.538949
0.04,4.56727
0.04,4.577725

File: charging_cycle_154.csv
control/mA,Ewe/V
-0.04,-2.80833
-0.04,-2.83774
-0.04,-2.86926
-0.04,-2.89844
-0.04,-2.92651
-0.04,-2.95263
-0.04,-2.97819
-0.04,-3.00313
-0.04,-3.02753
-0.04,-3.042915
0.04,-2.39889
0.04,-1.39881
0.04,-0.398699
0.04,0.382497
0.04,0.6383195
0.04,0.7608687
0.04,0.8497942
0.04,0.931048
0.04,1.0106
0.04,1.08499
0.04,1.15453
0.04,1.229903
0.04,1.31383
0.04,1.40831
0.04,1.51305
0.04,1.62993
0.04,1.74529
0.04,1.859213
0.04,1.96358
0.04,2.04462
0.04,2.10462
0.04,2.15087
0.04,2.18854
0.04,2.22329
0.04,2.256284
0.04,2.29084
0.04,2.325726
0.04,2.36416
0.04,2.40498
0.04,2.44923
0.04,2.497108
0.04,2.55098
0.04,2.61059
0.04,2.67899
0.04,2.756671
0.04,2.84354
0.04,2.934312
0.04,3.027226
0.04,3.121342
0.04,3.22229
0.04,3.32352
0.04,3.42892
0.04,3.53925
0.04,3.65512
0.04,3.778398
0.04,3.89843
0.04,4.00075
0.04,4.06861
0.04,4.15631
0.04,4.219676
0.04,4.271867
0.04,4.3181
0.04,4.35846
0.04,4.39585
0.04,4.429872
0.04,4.463572
0.04,4.494219
0.04,4.5229
0.04,4.55322
0.04,4.5795
0.04,4.604918
0.04,4.628332
0.04,4.6393

File: charging_cycle_155.csv
control/mA,Ewe/V
-0.04,-2.89189
-0.04,-2.92397
-0.04,-2.954295
-0.04,-2.9825
-0.04,-3.009921
-0.04,-3.03521
-0.04,-3.05837
-0.04,-3.08276
-0.04,-3.10719
-0.04,-3.124
0.04,-2.48706
0.04,-1.48701
0.04,-0.486976
0.04,0.3778022
0.04,0.6533949
0.04,0.777433
0.04,0.8643925
0.04,0.947364
0.04,1.02742
0.04,1.09718
0.04,1.16914
0.04,1.24504
0.04,1.3307
0.04,1.426226
0.04,1.5349
0.04,1.652509
0.04,1.77309
0.04,1.88755
0.04,1.98342
0.04,2.05958
0.04,2.11423
0.04,2.15872
0.04,2.19656
0.04,2.23201
0.04,2.267371
0.04,2.30187
0.04,2.34223
0.04,2.3836
0.04,2.428143
0.04,2.476594
0.04,2.52819
0.04,2.582007
0.04,2.64761
0.04,2.71982
0.04,2.80029
0.04,2.88918
0.04,2.98169
0.04,3.07802
0.04,3.17666
0.04,3.27912
0.04,3.38381
0.04,3.49122
0.04,3.602379
0.04,3.72913
0.04,3.85553
0.04,3.97533
0.04,4.07647
0.04,4.156713
0.04,4.22008
0.04,4.27475
0.04,4.323276
0.04,4.363483
0.04,4.399454
0.04,4.43273
0.04,4.45859
0.04,4.47983
0.04,4.503283
0.04,4.52788
0.04,4.553051
0.04,4.57643
0.04,4.59767
0.04,4.619268
0.04,4.63026

File: charging_cycle_156.csv
control/mA,Ewe/V
-0.04,-2.99156
-0.04,-3.022325
-0.04,-3.05225
-0.04,-3.08135
-0.04,-3.109
-0.04,-3.13594
-0.04,-3.16153
-0.04,-3.187734
-0.04,-3.21279
-0.04,-3.2308
0.04,-2.58541
0.04,-1.58534
0.04,-0.5853279
0.04,0.3690623
0.04,0.664558
0.04,0.7825849
0.04,0.867045
0.04,0.9478412
0.04,1.03016
0.04,1.10457
0.04,1.178246
0.04,1.25717
0.04,1.34348
0.04,1.44498
0.04,1.557
0.04,1.67661
0.04,1.797862
0.04,1.91062
0.04,2.00346
0.04,2.07626
0.04,2.127993
0.04,2.17051
0.04,2.21047
0.04,2.24512
0.04,2.283515
0.04,2.32239
0.04,2.36414
0.04,2.408354
0.04,2.45715
0.04,2.50837
0.04,2.564031
0.04,2.62471
0.04,2.69171
0.04,2.767987
0.04,2.85294
0.04,2.942823
0.04,3.0382
0.04,3.13789
0.04,3.23912
0.04,3.3445
0.04,3.45392
0.04,3.56834
0.04,3.6931
0.04,3.825666
0.04,3.95442
0.04,4.06506
0.04,4.15152
0.04,4.222252
0.04,4.28061
0.04,4.329573
0.04,4.37083
0.04,4.40837
0.04,4.441608
0.04,4.4713
0.04,4.50044
0.04,4.52712
0.04,4.55532
0.04,4.58022
0.04,4.604555
0.04,4.627836
0.04,4.647873
0.04,4.66875
0.04,4.68039

File: charging_cycle_157.csv
control/mA,Ewe/V
-0.04,-3.09524
-0.04,-3.12606
-0.04,-3.15535
-0.04,-3.18485
-0.04,-3.21231
-0.04,-3.23981
-0.04,-3.26614
-0.04,-3.29126
-0.04,-3.31593
-0.04,-3.33458
0.04,-2.68103
0.04,-1.681
0.04,-0.680971
0.04,0.319085
0.04,0.668451
0.04,0.791592
0.04,0.87422
0.04,0.953929
0.04,1.03564
0.04,1.11211
0.04,1.18794
0.04,1.268908
0.04,1.36037
0.04,1.463132
0.04,1.57816
0.04,1.69613
0.04,1.8187
0.04,1.92875
0.04,2.02172
0.04,2.09269
0.04,2.14507
0.04,2.190031
0.04,2.22772
0.04,2.26684
0.04,2.30594
0.04,2.34748
0.04,2.3925
0.04,2.43776
0.04,2.49049
0.04,2.54506
0.04,2.60407
0.04,2.66857
0.04,2.73723
0.04,2.81982
0.04,2.90739
0.04,2.99977
0.04,3.09749
0.04,3.1979
0.04,3.30072
0.04,3.410426
0.04,3.52313
0.04,3.64255
0.04,3.77067
0.04,3.905489
0.04,4.031454
0.04,4.12822
0.04,4.21023
0.04,4.277363
0.04,4.33242
0.04,4.37213
0.04,4.41974
0.04,4.45317
0.04,4.48783
0.04,4.51561
0.04,4.54351
0.04,4.569939
0.04,4.59404
0.04,4.61891
0.04,4.64016
0.04,4.66396
0.04,4.685924
0.04,4.705751
0.04,4.720826

File: charging_cycle_158.csv
control/mA,Ewe/V
-0.04,-3.22061
-0.04,-3.25168
-0.04,-3.28229
-0.04,-3.31194
-0.04,-3.34038
-0.04,-3.3666
-0.04,-3.39325
-0.04,-3.41921
-0.04,-3.44422
-0.04,-3.46544
0.04,-2.80383
0.04,-1.8038
0.04,-0.8037106
0.04,0.1964339
0.04,0.6613714
0.04,0.793977
0.04,0.8759376
0.04,0.952364
0.04,1.03541
0.04,1.11264
0.04,1.18794
0.04,1.26855
0.04,1.35963
0.04,1.46246
0.04,1.57725
0.04,1.69701
0.04,1.82074
0.04,1.93209
0.04,2.02292
0.04,2.09319
0.04,2.14599
0.04,2.19116
0.04,2.230656
0.04,2.270367
0.04,2.30981
0.04,2.34956
0.04,2.39158
0.04,2.43933
0.04,2.4906
0.04,2.54598
0.04,2.60571
0.04,2.67158
0.04,2.74524
0.04,2.82606
0.04,2.91492
0.04,3.00727
0.04,3.10369
0.04,3.20376
0.04,3.307322
0.04,3.41426
0.04,3.52368
0.04,3.64014
0.04,3.76508
0.04,3.90274
0.04,4.031416
0.04,4.142363
0.04,4.23023
0.04,4.301235
0.04,4.35917
0.04,4.40646
0.04,4.450195
0.04,4.486872
0.04,4.52114
0.04,4.5513
0.04,4.58074
0.04,4.606864
0.04,4.63358
0.04,4.659857
0.04,4.68484
0.04,4.70819
0.04,4.72483
0.04,4.7505
0.04,4.770117

File: charging_cycle_159.csv
control/mA,Ewe/V
-0.04,-3.347857
-0.04,-3.3814
-0.04,-3.4132
-0.04,-3.44249
-0.04,-3.47233
-0.04,-3.50128
-0.04,-3.52991
-0.04,-3.55828
-0.04,-3.58559
-0.04,-3.6133
0.04,-2.94169
0.04,-1.941556
0.04,-0.941373
0.04,0.05863756
0.04,0.648529
0.04,0.7949314
0.04,0.8793152
0.04,0.9566002
0.04,1.03709
0.04,1.11573
0.04,1.1904
0.04,1.27192
0.04,1.365772
0.04,1.46994
0.04,1.58362
0.04,1.70924
0.04,1.83252
0.04,1.94175
0.04,2.032637
0.04,2.10034
0.04,2.14679
0.04,2.19224
0.04,2.231133
0.04,2.2731
0.04,2.31126
0.04,2.35464
0.04,2.397973
0.04,2.44579
0.04,2.49684
0.04,2.55313
0.04,2.61065
0.04,2.678241
0.04,2.752053
0.04,2.8331
0.04,2.92031
0.04,3.01106
0.04,3.10489
0.04,3.20378
0.04,3.30599
0.04,3.40991
0.04,3.517461
0.04,3.630068
0.04,3.75292
0.04,3.88572
0.04,4.01565
0.04,4.13097
0.04,4.224427
0.04,4.30057
0.04,4.362281
0.04,4.413938
0.04,4.457828
0.04,4.49687
0.04,4.531926
0.04,4.56261
0.04,4.593067
0.04,4.621577
0.04,4.6499
0.04,4.67623
0.04,4.703308
0.04,4.72852
0.04,4.752809
0.04,4.77651
0.04,4.797882

File: charging_cycle_160.csv
control/mA,Ewe/V
-0.04,-3.46938
-0.04,-3.507961
-0.04,-3.5446
-0.04,-3.577575
-0.04,-3.613584
-0.04,-3.647284
-0.04,-3.68056
-0.04,-3.71384
-0.04,-3.74745
-0.04,-3.77827
0.04,-3.11162
0.04,-2.11144
0.04,-1.11134
0.04,-0.111237
0.04,0.621565
0.04,0.7900653
0.04,0.8779222
0.04,0.954978
0.04,1.03572
0.04,1.11453
0.04,1.19029
0.04,1.27087
0.04,1.36363
0.04,1.467273
0.04,1.58076
0.04,1.70598
0.04,1.83286
0.04,1.94554
0.04,2.03481
0.04,2.09952
0.04,2.1507
0.04,2.19215
0.04,2.23608
0.04,2.27533
0.04,2.316738
0.04,2.35885
0.04,2.40335
0.04,2.451443
0.04,2.50335
0.04,2.55934
0.04,2.619657
0.04,2.68503
0.04,2.76184
0.04,2.84119
0.04,2.92628
0.04,3.01589
0.04,3.1093
0.04,3.207214
0.04,3.30746
0.04,3.40913
0.04,3.51674
0.04,3.62814
0.04,3.74972
0.04,3.880815
0.04,4.01136
0.04,4.12744
0.04,4.22145
0.04,4.30007
0.04,4.366575
0.04,4.418632
0.04,4.46283
0.04,4.503436
0.04,4.53986
0.04,4.571981
0.04,4.60377
0.04,4.63324
0.04,4.66274
0.04,4.6909
0.04,4.715636
0.04,4.741798
0.04,4.767216
0.04,4.790917
0.04,4.81353
0.04,4.81664

File: charging_cycle_161.csv
control/mA,Ewe/V
-0.04,-3.60242
-0.04,-3.65249
-0.04,-3.69829
-0.04,-3.74333
-0.04,-3.78657
-0.04,-3.82729
-0.04,-3.865075
-0.04,-3.90263
-0.04,-3.93755
-0.04,-3.96946
0.04,-3.302069
0.04,-2.301752
0.04,-1.30175
0.04,-0.301721
0.04,0.5814148
0.04,0.789894
0.04,0.8805365
0.04,0.955627
0.04,1.03522
0.04,1.113861
0.04,1.18985
0.04,1.270034
0.04,1.36005
0.04,1.46328
0.04,1.57988
0.04,1.706265
0.04,1.83221
0.04,1.94493
0.04,2.03122
0.04,2.09187
0.04,2.14385
0.04,2.1894
0.04,2.231381
0.04,2.27237
0.04,2.3133
0.04,2.35488
0.04,2.397477
0.04,2.445432
0.04,2.4947
0.04,2.54747
0.04,2.61267
0.04,2.678222
0.04,2.75051
0.04,2.8309
0.04,2.91372
0.04,3.00152
0.04,3.09167
0.04,3.188017
0.04,3.28814
0.04,3.39083
0.04,3.495096
0.04,3.603047
0.04,3.71871
0.04,3.847592
0.04,3.97959
0.04,4.10139
0.04,4.20555
0.04,4.28994
0.04,4.359323
0.04,4.419014
0.04,4.46716
0.04,4.51076
0.04,4.54897
0.04,4.584652
0.04,4.611139
0.04,4.63848
0.04,4.665963
0.04,4.69316
0.04,4.71924
0.04,4.744813
0.04,4.768056
0.04,4.79153
0.04,4.811832
0.04,4.817442

File: charging_cycle_162.csv
control/mA,Ewe/V
-0.04,-3.588662
-0.04,-3.649574
-0.04,-3.70999
-0.04,-3.765826
-0.04,-3.81666
-0.04,-3.86427
-0.04,-3.90923
-0.04,-3.94946
-0.04,-3.9885
-0.04,-4.021019
0.04,-3.362185
0.04,-2.3619
0.04,-1.3619
0.04,-0.361793
0.04,0.55781
0.04,0.786306
0.04,0.884868
0.04,0.963527
0.04,1.04516
0.04,1.12556
0.04,1.20147
0.04,1.28284
0.04,1.37585
0.04,1.48097
0.04,1.59765
0.04,1.72588
0.04,1.85545
0.04,1.9635
0.04,2.04416
0.04,2.10448
0.04,2.15177
0.04,2.19551
0.04,2.23709
0.04,2.27773
0.04,2.317654
0.04,2.35948
0.04,2.4029
0.04,2.449821
0.04,2.50026
0.04,2.55535
0.04,2.615898
0.04,2.6815
0.04,2.7545
0.04,2.833498
0.04,2.91634
0.04,3.0002
0.04,3.091363
0.04,3.18557
0.04,3.28667
0.04,3.38476
0.04,3.48964
0.04,3.596597
0.04,3.71121
0.04,3.83553
0.04,3.96539
0.04,4.086069
0.04,4.18789
0.04,4.272039
0.04,4.340985
0.04,4.39974
0.04,4.44957
0.04,4.492845
0.04,4.53265
0.04,4.568718
0.04,4.59946
0.04,4.63045
0.04,4.660544
0.04,4.689416
0.04,4.717181
0.04,4.7417
0.04,4.76519
0.04,4.79141
0.04,4.81429
0.04,4.82118

File: charging_cycle_163.csv
control/mA,Ewe/V
-0.04,-3.64509
-0.04,-3.7168
-0.04,-3.7872
-0.04,-3.85271
-0.04,-3.912057
-0.04,-3.96438
-0.04,-4.011993
-0.04,-4.053002
-0.04,-4.09105
-0.04,-4.12179
0.04,-3.44739
0.04,-2.447048
0.04,-1.44703
0.04,-0.446997
0.04,0.538593
0.04,0.787222
0.04,0.8847156
0.04,0.961905
0.04,1.044438
0.04,1.12565
0.04,1.203607
0.04,1.28587
0.04,1.38079
0.04,1.4859
0.04,1.60488
0.04,1.73344
0.04,1.86104
0.04,1.96968
0.04,2.04876
0.04,2.1066
0.04,2.15341
0.04,2.19627
0.04,2.23751
0.04,2.277542
0.04,2.31687
0.04,2.35532
0.04,2.39881
0.04,2.44425
0.04,2.49325
0.04,2.546742
0.04,2.60531
0.04,2.66689
0.04,2.739573
0.04,2.81783
0.04,2.89983
0.04,2.98469
0.04,3.074532
0.04,3.165423
0.04,3.26433
0.04,3.36499
0.04,3.46823
0.04,3.57074
0.04,3.682622
0.04,3.80216
0.04,3.934113
0.04,4.05624
0.04,4.16438
0.04,4.255685
0.04,4.330489
0.04,4.39121
0.04,4.44403
0.04,4.490402
0.04,4.529579
0.04,4.568355
0.04,4.602437
0.04,4.63482
0.04,4.66486
0.04,4.694511
0.04,4.72346
0.04,4.750519
0.04,4.776204
0.04,4.80204
0.04,4.82698
0.04,4.83542

File: charging_cycle_164.csv
control/mA,Ewe/V
-0.04,-3.66408
-0.04,-3.74087
-0.04,-3.81903
-0.04,-3.89259
-0.04,-3.95719
-0.04,-4.01329
-0.04,-4.06157
-0.04,-4.10578
-0.04,-4.144599
-0.04,-4.176219
0.04,-3.50181
0.04,-2.50157
0.04,-1.50157
0.04,-0.5015548
0.04,0.498539
0.04,0.7822414
0.04,0.880804
0.04,0.9613518
0.04,1.04284
0.04,1.1255
0.04,1.20557
0.04,1.28778
0.04,1.38583
0.04,1.49139
0.04,1.60932
0.04,1.73947
0.04,1.86877
0.04,1.97533
0.04,2.0534
0.04,2.11095
0.04,2.15645
0.04,2.19841
0.04,2.23585
0.04,2.2771
0.04,2.31609
0.04,2.35658
0.04,2.3969
0.04,2.44076
0.04,2.488635
0.04,2.54155
0.04,2.59867
0.04,2.66109
0.04,2.73137
0.04,2.804454
0.04,2.88588
0.04,2.97076
0.04,3.05806
0.04,3.151111
0.04,3.243433
0.04,3.34488
0.04,3.44449
0.04,3.54691
0.04,3.65598
0.04,3.77359
0.04,3.90066
0.04,4.02666
0.04,4.143031
0.04,4.24107
0.04,4.32112
0.04,4.38734
0.04,4.44237
0.04,4.488876
0.04,4.530953
0.04,4.57023
0.04,4.606864
0.04,4.64177
0.04,4.6755
0.04,4.70825
0.04,4.735863
0.04,4.76672
0.04,4.796432
0.04,4.823491
0.04,4.84706
0.04,4.858126

File: charging_cycle_165.csv
control/mA,Ewe/V
-0.04,-3.69625
-0.04,-3.77716
-0.04,-3.86034
-0.04,-3.94032
-0.04,-4.00846
-0.04,-4.06552
-0.04,-4.11502
-0.04,-4.157766
-0.04,-4.193298
-0.04,-4.22474
0.04,-3.547903
0.04,-2.54782
0.04,-1.54771
0.04,-0.54764
0.04,0.452377
0.04,0.787241
0.04,0.883552
0.04,0.9628021
0.04,1.04459
0.04,1.12678
0.04,1.20553
0.04,1.28893
0.04,1.38094
0.04,1.485726
0.04,1.60406
0.04,1.736492
0.04,1.86788
0.04,1.973
0.04,2.04893
0.04,2.105552
0.04,2.151961
0.04,2.1928
0.04,2.23193
0.04,2.271493
0.04,2.30954
0.04,2.34891
0.04,2.38885
0.04,2.43164
0.04,2.47957
0.04,2.53098
0.04,2.58651
0.04,2.64903
0.04,2.717208
0.04,2.790352
0.04,2.8696
0.04,2.95309
0.04,3.03974
0.04,3.12938
0.04,3.22513
0.04,3.32362
0.04,3.425425
0.04,3.52817
0.04,3.63392
0.04,3.748877
0.04,3.87234
0.04,4.002258
0.04,4.12217
0.04,4.22702
0.04,4.312914
0.04,4.382337
0.04,4.438173
0.04,4.488704
0.04,4.53382
0.04,4.575034
0.04,4.61288
0.04,4.6489
0.04,4.683806
0.04,4.71516
0.04,4.74592
0.04,4.775632
0.04,4.80492
0.04,4.83361
0.04,4.85883
0.04,4.8724

File: charging_cycle_166.csv
control/mA,Ewe/V
-0.04,-3.7572
-0.04,-3.841527
-0.04,-3.9266
-0.04,-4.00318
-0.04,-4.068592
-0.04,-4.123169
-0.04,-4.166582
-0.04,-4.20876
-0.04,-4.24546
-0.04,-4.27447
0.04,-3.60169
0.04,-2.601618
0.04,-1.60146
0.04,-0.6014528
0.04,0.398602
0.04,0.7825467
0.04,0.883113
0.04,0.9612564
0.04,1.04276
0.04,1.12642
0.04,1.20704
0.04,1.29049
0.04,1.383767
0.04,1.48922
0.04,1.60705
0.04,1.73964
0.04,1.87078
0.04,1.9755
0.04,2.05218
0.04,2.10723
0.04,2.150129
0.04,2.19097
0.04,2.230026
0.04,2.2684
0.04,2.30647
0.04,2.344389
0.04,2.385016
0.04,2.427685
0.04,2.47282
0.04,2.52239
0.04,2.5771
0.04,2.63708
0.04,2.704289
0.04,2.77608
0.04,2.85199
0.04,2.93437
0.04,3.01957
0.04,3.10982
0.04,3.20271
0.04,3.30026
0.04,3.39835
0.04,3.5017
0.04,3.603047
0.04,3.7122
0.04,3.828872
0.04,3.95774
0.04,4.083092
0.04,4.194639
0.04,4.28963
0.04,4.36673
0.04,4.42978
0.04,4.48514
0.04,4.52666
0.04,4.57328
0.04,4.61335
0.04,4.64959
0.04,4.684779
0.04,4.717582
0.04,4.749107
0.04,4.780116
0.04,4.81013
0.04,4.839578
0.04,4.866618
0.04,4.881961