Folder: Battery_Analysis1 (part 9)

File: charging_cycle_192.csv
control/mA,Ewe/V
-0.08,-5.241121
-0.08,-5.27534
-0.08,-5.3068
-0.08,-5.33382
-0.08,-5.356495
-0.08,-5.37615
-0.08,-5.392065
-0.08,-5.40663
-0.08,-5.41922
-0.08,-5.42718
0.08,-4.59929
0.08,-3.59755
0.08,-2.597477
0.08,-1.59742
0.08,-0.5973882
0.08,0.402686
0.08,0.898799
0.08,1.03196
0.08,1.11088
0.08,1.20025
0.08,1.3061
0.08,1.42342
0.08,1.56893
0.08,1.750785
0.08,1.93337
0.08,2.05701
0.08,2.13876
0.08,2.20354
0.08,2.26218
0.08,2.32307
0.08,2.39141
0.08,2.47161
0.08,2.566798
0.08,2.67897
0.08,2.80934
0.08,2.94756
0.08,3.08659
0.08,3.23481
0.08,3.385752
0.08,3.53668
0.08,3.682164
0.08,3.81542
0.08,3.955047
0.08,4.08985
0.08,4.230419
0.08,4.37625
0.08,4.515973
0.08,4.64528
0.08,4.758114
0.08,4.85257
0.08,4.931576
0.08,4.99741
0.08,5.05332
0.08,5.10439
0.08,5.15065
0.08,5.19385
0.08,5.236174
0.08,5.276572
0.08,5.31516
0.08,5.348705
0.08,5.3767
0.08,5.39843
0.08,5.41645
0.08,5.43095
0.08,5.442153
0.08,5.452954
0.08,5.461522
0.08,5.468907
0.08,5.475357
0.08,5.482246
0.08,5.48799
0.08,5.493085
0.08,5.497722
0.08,5.50196
0.08,5.50347

File: charging_cycle_193.csv
control/mA,Ewe/V
-0.08,-5.26415
-0.08,-5.29986
-0.08,-5.331554
-0.08,-5.357926
-0.08,-5.38104
-0.08,-5.39819
-0.08,-5.41382
-0.08,-5.427292
-0.08,-5.438684
-0.08,-5.44643
0.08,-4.62783
0.08,-3.62777
0.08,-2.627685
0.08,-1.62744
0.08,-0.6274244
0.08,0.3725926
0.08,0.8760139
0.08,1.01541
0.08,1.09552
0.08,1.18433
0.08,1.288716
0.08,1.4043
0.08,1.54788
0.08,1.72363
0.08,1.91087
0.08,2.04641
0.08,2.13219
0.08,2.19927
0.08,2.259757
0.08,2.321356
0.08,2.38971
0.08,2.4693
0.08,2.56371
0.08,2.67538
0.08,2.80438
0.08,2.94542
0.08,3.08848
0.08,3.23708
0.08,3.38957
0.08,3.5432
0.08,3.69218
0.08,3.83227
0.08,3.96713
0.08,4.10424
0.08,4.24544
0.08,4.390123
0.08,4.533472
0.08,4.664208
0.08,4.77739
0.08,4.871179
0.08,4.946651
0.08,5.010826
0.08,5.0658
0.08,5.115094
0.08,5.16131
0.08,5.20396
0.08,5.24545
0.08,5.28533
0.08,5.321493
0.08,5.353
0.08,5.378226
0.08,5.398797
0.08,5.41494
0.08,5.427994
0.08,5.43929
0.08,5.44992
0.08,5.459175
0.08,5.46549
0.08,5.471712
0.08,5.47738
0.08,5.482322
0.08,5.48721
0.08,5.49163
0.08,5.49597
0.08,5.49755

File: charging_cycle_194.csv
control/mA,Ewe/V
-0.08,-5.27503
-0.08,-5.31094
-0.08,-5.344091
-0.08,-5.371895
-0.08,-5.390252
-0.08,-5.40809
-0.08,-5.42325
-0.08,-5.432215
-0.08,-5.445382
-0.08,-5.45468
0.08,-4.653475
0.08,-3.65346
0.08,-2.65339
0.08,-1.65335
0.08,-0.653205
0.08,0.346812
0.08,0.863114
0.08,1.00419
0.08,1.08266
0.08,1.16653
0.08,1.264977
0.08,1.378233
0.08,1.5108
0.08,1.676534
0.08,1.86587
0.08,2.01541
0.08,2.106506
0.08,2.17322
0.08,2.23214
0.08,2.29142
0.08,2.3549
0.08,2.42893
0.08,2.51713
0.08,2.62069
0.08,2.74295
0.08,2.87783
0.08,3.02068
0.08,3.162179
0.08,3.310528
0.08,3.462102
0.08,3.6094
0.08,3.74762
0.08,3.8783
0.08,4.004624
0.08,4.137249
0.08,4.271123
0.08,4.409587
0.08,4.544044
0.08,4.663273
0.08,4.766491
0.08,4.85099
0.08,4.91908
0.08,4.97705
0.08,5.02936
0.08,5.07611
0.08,5.11834
0.08,5.160015
0.08,5.199478
0.08,5.2374
0.08,5.272069
0.08,5.30201
0.08,5.325863
0.08,5.344774
0.08,5.36059
0.08,5.374085
0.08,5.38571
0.08,5.39538
0.08,5.404064
0.08,5.41181
0.08,5.419063
0.08,5.42517
0.08,5.43023
0.08,5.434921
0.08,5.43902
0.08,5.440283

File: charging_cycle_195.csv
control/mA,Ewe/V
-0.08,-5.226389
-0.08,-5.26207
-0.08,-5.29621
-0.08,-5.32776
-0.08,-5.35552
-0.08,-5.378421
-0.08,-5.397847
-0.08,-5.413533
-0.08,-5.42807
-0.08,-5.437253
0.08,-4.673834
0.08,-3.67338
0.08,-2.67325
0.08,-1.6732
0.08,-0.67307
0.08,0.326985
0.08,0.862198
0.08,1.004994
0.08,1.07968
0.08,1.16151
0.08,1.25752
0.08,1.367184
0.08,1.49592
0.08,1.65959
0.08,1.85061
0.08,2.0077
0.08,2.10177
0.08,2.17267
0.08,2.23379
0.08,2.293877
0.08,2.36576
0.08,2.447
0.08,2.543765
0.08,2.65819
0.08,2.78509
0.08,2.929637
0.08,3.07902
0.08,3.23382
0.08,3.39272
0.08,3.54843
0.08,3.701571
0.08,3.84355
0.08,3.98035
0.08,4.118586
0.08,4.259616
0.08,4.4068
0.08,4.548261
0.08,4.67707
0.08,4.78666
0.08,4.877629
0.08,4.95409
0.08,5.018326
0.08,5.07428
0.08,5.12517
0.08,5.171102
0.08,5.21408
0.08,5.25468
0.08,5.292506
0.08,5.324928
0.08,5.349678
0.08,5.36884
0.08,5.383722
0.08,5.39656
0.08,5.40767
0.08,5.41738
0.08,5.4263
0.08,5.434005
0.08,5.440359
0.08,5.44591
0.08,5.45076
0.08,5.45267
0.08,5.458488
0.08,5.46393
0.08,5.468411
0.08,5.47036

File: charging_cycle_196.csv
control/mA,Ewe/V
-0.08,-5.32264
-0.08,-5.35361
-0.08,-5.381417
-0.08,-5.401511
-0.08,-5.419449
-0.08,-5.435726
-0.08,-5.44889
-0.08,-5.45998
-0.08,-5.46876
-0.08,-5.475151
0.08,-4.70229
0.08,-3.70053
0.08,-2.70028
0.08,-1.7001
0.08,-0.700015
0.08,0.300078
0.08,0.8592211
0.08,1.00784
0.08,1.08272
0.08,1.16432
0.08,1.25975
0.08,1.3664
0.08,1.49345
0.08,1.65547
0.08,1.84835
0.08,2.01476
0.08,2.11507
0.08,2.18963
0.08,2.256093
0.08,2.3226
0.08,2.39694
0.08,2.485334
0.08,2.5883
0.08,2.70654
0.08,2.8384
0.08,2.98332
0.08,3.139375
0.08,3.29868
0.08,3.46317
0.08,3.62587
0.08,3.77926
0.08,3.921194
0.08,4.06023
0.08,4.198456
0.08,4.34327
0.08,4.49483
0.08,4.632645
0.08,4.75951
0.08,4.86242
0.08,4.950353
0.08,5.02428
0.08,5.08725
0.08,5.14078
0.08,5.19205
0.08,5.238903
0.08,5.28102
0.08,5.317848
0.08,5.34695
0.08,5.37025
0.08,5.38937
0.08,5.40553
0.08,5.419101
0.08,5.42998
0.08,5.43839
0.08,5.446084
0.08,5.453011
0.08,5.45954
0.08,5.46528
0.08,5.47095
0.08,5.476197
0.08,5.481559
0.08,5.4861
0.08,5.490566
0.08,5.49484
0.08,5.49694

File: charging_cycle_197.csv
control/mA,Ewe/V
-0.08,-5.41237
-0.08,-5.43088
-0.08,-5.44475
-0.08,-5.45727
-0.08,-5.469312
-0.08,-5.480895
-0.08,-5.49191
-0.08,-5.502306
-0.08,-5.511008
-0.08,-5.517763
0.08,-4.73026
0.08,-3.728758
0.08,-2.72863
0.08,-1.72852
0.08,-0.728448
0.08,0.2715687
0.08,0.834566
0.08,0.993659
0.08,1.073272
0.08,1.15338
0.08,1.24521
0.08,1.34827
0.08,1.46865
0.08,1.61911
0.08,1.80964
0.08,1.99254
0.08,2.1121
0.08,2.19663
0.08,2.2718
0.08,2.34607
0.08,2.42683
0.08,2.51795
0.08,2.62479
0.08,2.750431
0.08,2.88783
0.08,3.04331
0.08,3.20706
0.08,3.37201
0.08,3.54723
0.08,3.71548
0.08,3.87412
0.08,4.0226
0.08,4.1662
0.08,4.307552
0.08,4.455
0.08,4.603563
0.08,4.73993
0.08,4.86278
0.08,4.96675
0.08,5.04842
0.08,5.11553
0.08,5.17482
0.08,5.22814
0.08,5.274893
0.08,5.31344
0.08,5.343705
0.08,5.368036
0.08,5.388168
0.08,5.404503
0.08,5.41683
0.08,5.427
0.08,5.434673
0.08,5.441294
0.08,5.447897
0.08,5.453908
0.08,5.45916
0.08,5.46448
0.08,5.46791
0.08,5.470758
0.08,5.47436
0.08,5.478353
0.08,5.4819
0.08,5.48604
0.08,5.48871
0.08,5.491291

File: charging_cycle_198.csv
control/mA,Ewe/V
-0.08,-5.48023
-0.08,-5.493871
-0.08,-5.506428
-0.08,-5.51715
-0.08,-5.528144
-0.08,-5.537895
-0.08,-5.546826
-0.08,-5.55391
-0.08,-5.560184
-0.08,-5.56394
0.08,-4.77948
0.08,-3.77868
0.08,-2.77844
0.08,-1.77842
0.08,-0.7784069
0.08,0.2216101
0.08,0.770162
0.08,0.9354184
0.08,1.02026
0.08,1.10172
0.08,1.19021
0.08,1.29005
0.08,1.39787
0.08,1.52876
0.08,1.69674
0.08,1.89087
0.08,2.044888
0.08,2.14129
0.08,2.2156
0.08,2.28594
0.08,2.35605
0.08,2.434612
0.08,2.52598
0.08,2.63364
0.08,2.761728
0.08,2.90855
0.08,3.06675
0.08,3.22834
0.08,3.39266
0.08,3.55803
0.08,3.71642
0.08,3.859557
0.08,3.99413
0.08,4.122708
0.08,4.252689
0.08,4.38785
0.08,4.52487
0.08,4.65514
0.08,4.76933
0.08,4.864481
0.08,4.947777
0.08,5.01501
0.08,5.073036
0.08,5.124082
0.08,5.16944
0.08,5.211691
0.08,5.24936
0.08,5.27936
0.08,5.30314
0.08,5.322409
0.08,5.33893
0.08,5.352102
0.08,5.36286
0.08,5.37258
0.08,5.37918
0.08,5.38639
0.08,5.392519
0.08,5.39843
0.08,5.403644
0.08,5.409083
0.08,5.413796
0.08,5.41845
0.08,5.422364
0.08,5.42603
0.08,5.42786

File: charging_cycle_199.csv
control/mA,Ewe/V
-0.08,-5.36571
-0.08,-5.400805
-0.08,-5.42655
-0.08,-5.445
-0.08,-5.45838
-0.08,-5.47149
-0.08,-5.48471
-0.08,-5.49595
-0.08,-5.506905
-0.08,-5.515607
0.08,-4.76273
0.08,-3.76084
0.08,-2.7605
0.08,-1.76042
0.08,-0.7603737
0.08,0.2397196
0.08,0.791115
0.08,0.9598443
0.08,1.040984
0.08,1.11701
0.08,1.20399
0.08,1.30236
0.08,1.41201
0.08,1.54912
0.08,1.72374
0.08,1.9194
0.08,2.06483
0.08,2.16101
0.08,2.23634
0.08,2.31248
0.08,2.38916
0.08,2.478712
0.08,2.58376
0.08,2.71015
0.08,2.85842
0.08,3.02316
0.08,3.19365
0.08,3.3676
0.08,3.54431
0.08,3.71373
0.08,3.870854
0.08,4.01478
0.08,4.15534
0.08,4.29666
0.08,4.446951
0.08,4.597285
0.08,4.736703
0.08,4.856867
0.08,4.958101
0.08,5.041893
0.08,5.11095
0.08,5.171045
0.08,5.223446
0.08,5.26923
0.08,5.30621
0.08,5.334603
0.08,5.35859
0.08,5.378398
0.08,5.392767
0.08,5.40586
0.08,5.41712
0.08,5.4261
0.08,5.4337
0.08,5.440378
0.08,5.44641
0.08,5.452057
0.08,5.45792
0.08,5.46311
0.08,5.4695
0.08,5.4769
0.08,5.481387
0.08,5.485547
0.08,5.48938
0.08,5.49394
0.08,5.4957

File: charging_cycle_200.csv
control/mA,Ewe/V
-0.08,-5.517973
-0.08,-5.532495
-0.08,-5.548372
-0.08,-5.56238
-0.08,-5.5757
-0.08,-5.588426
-0.08,-5.60047
-0.08,-5.613062
-0.08,-5.62356
-0.08,-5.629111
0.08,-4.80168
0.08,-3.79923
0.08,-2.79922
0.08,-1.79922
0.08,-0.7992071
0.08,0.20081
0.08,0.7706391
0.08,0.946486
0.08,1.033809
0.08,1.1126
0.08,1.199695
0.08,1.29893
0.08,1.41083
0.08,1.54574
0.08,1.72002
0.08,1.92394
0.08,2.08874
0.08,2.19938
0.08,2.289717
0.08,2.37425
0.08,2.46263
0.08,2.561741
0.08,2.68139
0.08,2.825426
0.08,2.98963
0.08,3.16464
0.08,3.34415
0.08,3.52771
0.08,3.71132
0.08,3.88351
0.08,4.039641
0.08,4.18915
0.08,4.33574
0.08,4.486395
0.08,4.643045
0.08,4.79034
0.08,4.92036
0.08,5.027772
0.08,5.11767
0.08,5.1907
0.08,5.251326
0.08,5.30107
0.08,5.339774
0.08,5.370631
0.08,5.395114
0.08,5.414235
0.08,5.429845
0.08,5.442821
0.08,5.45442
0.08,5.46458
0.08,5.473468
0.08,5.481063
0.08,5.487646
0.08,5.49446
0.08,5.50322
0.08,5.509343
0.08,5.51444
0.08,5.52129
0.08,5.52663
0.08,5.53215
0.08,5.53759
0.08,5.542452
0.08,5.54745
0.08,5.55226
0.08,5.55476

File: charging_cycle_201.csv
control/mA,Ewe/V
-0.08,-5.58957
-0.08,-5.6053
-0.08,-5.619741
-0.08,-5.63392
-0.08,-5.647201
-0.08,-5.66085
-0.08,-5.672123
-0.08,-5.68308
-0.08,-5.69369
-0.08,-5.699965
0.08,-4.826368
0.08,-3.82373
0.08,-2.82365
0.08,-1.82354
0.08,-0.8234994
0.08,0.176512
0.08,0.770448
0.08,0.951009
0.08,1.038198
0.08,1.11659
0.08,1.2037
0.08,1.30081
0.08,1.40875
0.08,1.53899
0.08,1.70523
0.08,1.90644
0.08,2.08632
0.08,2.21237
0.08,2.31126
0.08,2.404194
0.08,2.50108
0.08,2.607196
0.08,2.73085
0.08,2.87874
0.08,3.04927
0.08,3.22975
0.08,3.41434
0.08,3.60438
0.08,3.78929
0.08,3.95965
0.08,4.113281
0.08,4.26057
0.08,4.40627
0.08,4.555379
0.08,4.708117
0.08,4.853337
0.08,4.982317
0.08,5.08962
0.08,5.17572
0.08,5.245181
0.08,5.3018
0.08,5.3472
0.08,5.38095
0.08,5.40645
0.08,5.42786
0.08,5.44481
0.08,5.45927
0.08,5.47156
0.08,5.483849
0.08,5.49465
0.08,5.503714
0.08,5.51289
0.08,5.519877
0.08,5.527758
0.08,5.533483
0.08,5.540181
0.08,5.54688
0.08,5.552642
0.08,5.56007
0.08,5.56537
0.08,5.569912
0.08,5.57459
0.08,5.57903
0.08,5.583804
0.08,5.586724

File: charging_cycle_202.csv
control/mA,Ewe/V
-0.08,-5.649262
-0.08,-5.66922
-0.08,-5.687523
-0.08,-5.70357
-0.08,-5.71964
-0.08,-5.72903
-0.08,-5.74044
-0.08,-5.745382
-0.08,-5.75544
-0.08,-5.759503
0.08,-4.832139
0.08,-3.829305
0.08,-2.829084
0.08,-1.82902
0.08,-0.828957
0.08,0.171092
0.08,0.7864968
0.08,1.00041
0.08,1.08121
0.08,1.1575
0.08,1.24086
0.08,1.33589
0.08,1.44525
0.08,1.58318
0.08,1.76082
0.08,1.963042
0.08,2.13137
0.08,2.24773
0.08,2.34405
0.08,2.438066
0.08,2.53877
0.08,2.65254
0.08,2.79043
0.08,2.954578
0.08,3.13436
0.08,3.32078
0.08,3.51229
0.08,3.70491
0.08,3.88394
0.08,4.048018
0.08,4.19893
0.08,4.345717
0.08,4.49206
0.08,4.64022
0.08,4.78878
0.08,4.926824
0.08,5.045156
0.08,5.141085
0.08,5.21827
0.08,5.283709
0.08,5.33575
0.08,5.377444
0.08,5.410228
0.08,5.435646
0.08,5.45673
0.08,5.473468
0.08,5.487665
0.08,5.50016
0.08,5.51068
0.08,5.520831
0.08,5.528044
0.08,5.538006
0.08,5.54535
0.08,5.5526
0.08,5.55894
0.08,5.565065
0.08,5.571057
0.08,5.57608
0.08,5.58024
0.08,5.586762
0.08,5.591304
0.08,5.59659
0.08,5.6005
0.08,5.60539
0.08,5.60808

File: charging_cycle_203.csv
control/mA,Ewe/V
-0.08,-5.69806
-0.08,-5.71838
-0.08,-5.7384
-0.08,-5.756068
-0.08,-5.77347
-0.08,-5.789959
-0.08,-5.805378
-0.08,-5.82101
-0.08,-5.83622
-0.08,-5.842761
0.08,-4.86661
0.08,-3.86113
0.08,-2.86065
0.08,-1.8606
0.08,-0.860558
0.08,0.139472
0.08,0.7644181
0.08,0.995663
0.08,1.08224
0.08,1.15605
0.08,1.23528
0.08,1.32745
0.08,1.43264
0.08,1.56593
0.08,1.73752
0.08,1.94123
0.08,2.12021
0.08,2.2468
0.08,2.348301
0.08,2.44482
0.08,2.54791
0.08,2.66397
0.08,2.80085
0.08,2.96328
0.08,3.14277
0.08,3.329935
0.08,3.52174
0.08,3.71806
0.08,3.89776
0.08,4.06359
0.08,4.21498
0.08,4.360201
0.08,4.50748
0.08,4.65839
0.08,4.80653
0.08,4.94398
0.08,5.06098
0.08,5.15809
0.08,5.236346
0.08,5.30132
0.08,5.3537
0.08,5.39468
0.08,5.427135
0.08,5.453717
0.08,5.47551
0.08,5.49349
0.08,5.50894
0.08,5.521404
0.08,5.53308
0.08,5.54358
0.08,5.55346
0.08,5.561878
0.08,5.570561
0.08,5.578022
0.08,5.5851
0.08,5.59169
0.08,5.597353
0.08,5.603116
0.08,5.60836
0.08,5.61415
0.08,5.619775
0.08,5.624431
0.08,5.62842
0.08,5.633457
0.08,5.636549

File: charging_cycle_204.csv
control/mA,Ewe/V
-0.08,-5.773338
-0.08,-5.795722
-0.08,-5.81198
-0.08,-5.829174
-0.08,-5.845585
-0.08,-5.862225
-0.08,-5.87724
-0.08,-5.89159
-0.08,-5.905772
-0.08,-5.913481
0.08,-4.90564
0.08,-3.899224
0.08,-2.89889
0.08,-1.89888
0.08,-0.898838
0.08,0.101287
0.08,0.739114
0.08,0.986064
0.08,1.073272
0.08,1.14436
0.08,1.22153
0.08,1.31188
0.08,1.415616
0.08,1.54442
0.08,1.709967
0.08,1.91062
0.08,2.10067
0.08,2.23985
0.08,2.34729
0.08,2.447054
0.08,2.552047
0.08,2.66881
0.08,2.8048
0.08,2.96794
0.08,3.14922
0.08,3.338236
0.08,3.53599
0.08,3.73226
0.08,3.91803
0.08,4.08294
0.08,4.236526
0.08,4.385524
0.08,4.532041
0.08,4.68434
0.08,4.834101
0.08,4.971993
0.08,5.090726
0.08,5.18757
0.08,5.26613
0.08,5.32974
0.08,5.38116
0.08,5.42126
0.08,5.452076
0.08,5.47891
0.08,5.49904
0.08,5.516366
0.08,5.53119
0.08,5.54442
0.08,5.5565
0.08,5.568061
0.08,5.578308
0.08,5.58806
0.08,5.59533
0.08,5.60445
0.08,5.612409
0.08,5.62002
0.08,5.626893
0.08,5.63372
0.08,5.636167
0.08,5.633
0.08,5.62697
0.08,5.62672
0.08,5.62789
0.08,5.63048
0.08,5.63327

File: charging_cycle_205.csv
control/mA,Ewe/V
-0.08,-5.78639
-0.08,-5.8049
-0.08,-5.82295
-0.08,-5.840223
-0.08,-5.85694
-0.08,-5.87295
-0.08,-5.88699
-0.08,-5.90213
-0.08,-5.916115
-0.08,-5.923137
0.08,-4.94548
0.08,-3.94025
0.08,-2.93995
0.08,-1.93994
0.08,-0.939923
0.08,0.060126
0.08,0.702628
0.08,0.9731831
0.08,1.06699
0.08,1.13951
0.08,1.21721
0.08,1.30503
0.08,1.40434
0.08,1.529101
0.08,1.69033
0.08,1.89236
0.08,2.085763
0.08,2.22096
0.08,2.32794
0.08,2.429555
0.08,2.53602
0.08,2.65925
0.08,2.804149
0.08,2.97105
0.08,3.15098
0.08,3.33934
0.08,3.53792
0.08,3.73388
0.08,3.91253
0.08,4.07162
0.08,4.226507
0.08,4.37551
0.08,4.52843
0.08,4.684
0.08,4.832823
0.08,4.965734
0.08,5.07517
0.08,5.16408
0.08,5.23671
0.08,5.29909
0.08,5.35351
0.08,5.399408
0.08,5.43536
0.08,5.464995
0.08,5.48931
0.08,5.509668
0.08,5.52667
0.08,5.540868
0.08,5.55226
0.08,5.562775
0.08,5.573194
0.08,5.58184
0.08,5.590235
0.08,5.59804
0.08,5.605768
0.08,5.612695
0.08,5.61989
0.08,5.62586
0.08,5.63231
0.08,5.63787
0.08,5.64269
0.08,5.64809
0.08,5.653437
0.08,5.658208
0.08,5.66164

File: charging_cycle_206.csv
control/mA,Ewe/V
-0.08,-5.81595
-0.08,-5.84041
-0.08,-5.86301
-0.08,-5.88532
-0.08,-5.90575
-0.08,-5.92407
-0.08,-5.94262
-0.08,-5.96039
-0.08,-5.976836
-0.08,-5.98651
0.08,-4.963272
0.08,-3.95828
0.08,-2.95827
0.08,-1.958225
0.08,-0.9582234
0.08,0.0419783
0.08,0.6959493
0.08,0.9751677
0.08,1.07232
0.08,1.14609
0.08,1.22279
0.08,1.3107
0.08,1.40852
0.08,1.53168
0.08,1.696
0.08,1.89513
0.08,2.09258
0.08,2.234
0.08,2.34561
0.08,2.449382
0.08,2.5593
0.08,2.68129
0.08,2.827716
0.08,2.99538
0.08,3.177178
0.08,3.366593
0.08,3.56471
0.08,3.762216
0.08,3.94428
0.08,4.1095
0.08,4.26225
0.08,4.41455
0.08,4.56643
0.08,4.720082
0.08,4.870797
0.08,5.00472
0.08,5.11406
0.08,5.20375
0.08,5.27776
0.08,5.33989
0.08,5.39363
0.08,5.43597
0.08,5.47242
0.08,5.49963
0.08,5.52213
0.08,5.540601
0.08,5.558386
0.08,5.57188
0.08,5.584071
0.08,5.594891
0.08,5.60409
0.08,5.613535
0.08,5.621817
0.08,5.629641
0.08,5.63745
0.08,5.64447
0.08,5.65141
0.08,5.65741
0.08,5.664066
0.08,5.669905
0.08,5.675573
0.08,5.681355
0.08,5.686164
0.08,5.69088
0.08,5.694885

File: charging_cycle_207.csv
control/mA,Ewe/V
-0.08,-5.89596
-0.08,-5.919588
-0.08,-5.942029
-0.08,-5.963764
-0.08,-5.98558
-0.08,-6.005346
-0.08,-6.023398
-0.08,-6.04008
-0.08,-6.055743
-0.08,-6.06551
0.08,-4.99093
0.08,-3.98393
0.08,-2.98335
0.08,-1.98326
0.08,-0.983126
0.08,0.0169036
0.08,0.689423
0.08,0.993239
0.08,1.08589
0.08,1.15014
0.08,1.21945
0.08,1.303944
0.08,1.40245
0.08,1.52771
0.08,1.689434
0.08,1.88728
0.08,2.08958
0.08,2.245903
0.08,2.36704
0.08,2.475888
0.08,2.58813
0.08,2.71738
0.08,2.86895
0.08,3.04146
0.08,3.225877
0.08,3.41878
0.08,3.62085
0.08,3.819197
0.08,4.001685
0.08,4.170682
0.08,4.33011
0.08,4.485956
0.08,4.64545
0.08,4.806393
0.08,4.95463
0.08,5.083379
0.08,5.18749
0.08,5.27266
0.08,5.3434
0.08,5.404293
0.08,5.45242
0.08,5.49532
0.08,5.530468
0.08,5.55774
0.08,5.581018
0.08,5.60096
0.08,5.61731
0.08,5.630843
0.08,5.64319
0.08,5.654296
0.08,5.664257
0.08,5.67366
0.08,5.68174
0.08,5.690973
0.08,5.69878
0.08,5.70654
0.08,5.713891
0.08,5.721123
0.08,5.728012
0.08,5.73431
0.08,5.740721
0.08,5.746408
0.08,5.752457
0.08,5.7574
0.08,5.76219

File: charging_cycle_208.csv
control/mA,Ewe/V
-0.08,-5.980538
-0.08,-6.00849
-0.08,-6.0316
-0.08,-6.053816
-0.08,-6.076028
-0.08,-6.09679
-0.08,-6.117972
-0.08,-6.137589
-0.08,-6.15621
-0.08,-6.16837
0.08,-5.03092
0.08,-4.013478
0.08,-3.01329
0.08,-2.01324
0.08,-1.01324
0.08,-0.013228
0.08,0.672821
0.08,0.9858922
0.08,1.08148
0.08,1.14855
0.08,1.216507
0.08,1.29784
0.08,1.39443
0.08,1.512499
0.08,1.6722
0.08,1.86295
0.08,2.06897
0.08,2.23705
0.08,2.36738
0.08,2.48268
0.08,2.59947
0.08,2.72612
0.08,2.87699
0.08,3.049152
0.08,3.23815
0.08,3.43707
0.08,3.64192
0.08,3.84213
0.08,4.02894
0.08,4.19935
0.08,4.35715
0.08,4.513912
0.08,4.67087
0.08,4.8288
0.08,4.977546
0.08,5.106316
0.08,5.212836
0.08,5.299128
0.08,5.371509
0.08,5.431944
0.08,5.481349
0.08,5.52282
0.08,5.55774
0.08,5.58567
0.08,5.60907
0.08,5.629545
0.08,5.64682
0.08,5.66212
0.08,5.67552
0.08,5.68607
0.08,5.69696
0.08,5.70654
0.08,5.715952
0.08,5.724711
0.08,5.73347
0.08,5.741599
0.08,5.747572
0.08,5.75408
0.08,5.760529
0.08,5.76635
0.08,5.77307
0.08,5.778677
0.08,5.78419
0.08,5.789802
0.08,5.79423

File: charging_cycle_209.csv
control/mA,Ewe/V
-0.08,-6.07364
-0.08,-6.10272
-0.08,-6.129727
-0.08,-6.159038
-0.08,-6.1848
-0.08,-6.211731
-0.08,-6.237359
-0.08,-6.262777
-0.08,-6.28892
-0.08,-6.304091
0.08,-5.083744
0.08,-4.050708
0.08,-3.049165
0.08,-2.04908
0.08,-1.04906
0.08,-0.0490272
0.08,0.6981629
0.08,1.04408
0.08,1.12924
0.08,1.18044
0.08,1.24181
0.08,1.31633
0.08,1.41018
0.08,1.52964
0.08,1.68842
0.08,1.88242
0.08,2.087118
0.08,2.25991
0.08,2.39675
0.08,2.52151
0.08,2.64521
0.08,2.78182
0.08,2.93964
0.08,3.12058
0.08,3.3162
0.08,3.518606
0.08,3.716532
0.08,3.91442
0.08,4.08975
0.08,4.25406
0.08,4.41069
0.08,4.563451
0.08,4.717468
0.08,4.86721
0.08,5.00253
0.08,5.122632
0.08,5.222263
0.08,5.30705
0.08,5.37861
0.08,5.442115
0.08,5.49513
0.08,5.540906
0.08,5.579224
0.08,5.613325
0.08,5.64119
0.08,5.66494
0.08,5.686221
0.08,5.701831
0.08,5.71979
0.08,5.7333
0.08,5.745244
0.08,5.756121
0.08,5.76639
0.08,5.77488
0.08,5.784306
0.08,5.790661
0.08,5.79953
0.08,5.80402
0.08,5.81341
0.08,5.8206
0.08,5.826517
0.08,5.83302
0.08,5.83856
0.08,5.84365
0.08,5.84842
0.08,5.849474

File: charging_cycle_210.csv
control/mA,Ewe/V
-0.08,-6.16156
-0.08,-6.19371
-0.08,-6.227016
-0.08,-6.25577
-0.08,-6.28331
-0.08,-6.3139
-0.08,-6.34361
-0.08,-6.37275
-0.08,-6.39992
-0.08,-6.41782
0.08,-5.12013
0.08,-4.11965
0.08,-3.1166
0.08,-2.11634
0.08,-1.11634
0.08,-0.116198
0.08,0.735584
0.08,1.08518
0.08,1.16857
0.08,1.21248
0.08,1.26694
0.08,1.342014
0.08,1.4381
0.08,1.5569
0.08,1.71928
0.08,1.91507
0.08,2.11717
0.08,2.29224
0.08,2.43652
0.08,2.56279
0.08,2.69536
0.08,2.840635
0.08,3.01452
0.08,3.20849
0.08,3.4068
0.08,3.612741
0.08,3.80914
0.08,3.99035
0.08,4.153183
0.08,4.309021
0.08,4.46403
0.08,4.61894
0.08,4.77285
0.08,4.920527
0.08,5.046492
0.08,5.161618
0.08,5.258
0.08,5.33716
0.08,5.409846
0.08,5.472571
0.08,5.52644
0.08,5.57396
0.08,5.61521
0.08,5.65056
0.08,5.681126
0.08,5.70794
0.08,5.73128
0.08,5.75164
0.08,5.769937
0.08,5.78412
0.08,5.793428
0.08,5.80564
0.08,5.816251
0.08,5.82663
0.08,5.835448
0.08,5.84356
0.08,5.85184
0.08,5.85909
0.08,5.8664
0.08,5.872068
0.08,5.87911
0.08,5.884643
0.08,5.889834
0.08,5.89539
0.08,5.89968
0.08,5.90239

File: charging_cycle_211.csv
control/mA,Ewe/V
-0.08,-6.232168
-0.08,-6.26274
-0.08,-6.29245
-0.08,-6.321304
-0.08,-6.350157
-0.08,-6.37712
-0.08,-6.40006
-0.08,-6.428911
-0.08,-6.45486
-0.08,-6.47267
0.08,-5.17817
0.08,-4.12431
0.08,-3.11935
0.08,-2.11892
0.08,-1.1189
0.08,-0.118889
0.08,0.732722
0.08,1.07852
0.08,1.165079
0.08,1.20689
0.08,1.26444
0.08,1.33841
0.08,1.42943
0.08,1.54471
0.08,1.702582
0.08,1.89165
0.08,2.09229
0.08,2.26976
0.08,2.413201
0.08,2.5406
0.08,2.67049
0.08,2.81569
0.08,2.98841
0.08,3.17926
0.08,3.37808
0.08,3.57772
0.08,3.77649
0.08,3.9593
0.08,4.122
0.08,4.277153
0.08,4.427811
0.08,4.575034
0.08,4.735768
0.08,4.880186
0.08,5.011761
0.08,5.120533
0.08,5.210565
0.08,5.29069
0.08,5.36105
0.08,5.423681
0.08,5.479498
0.08,5.528693
0.08,5.57094
0.08,5.60794
0.08,5.638285
0.08,5.66851
0.08,5.69513
0.08,5.718433
0.08,5.73958
0.08,5.757915
0.08,5.77543
0.08,5.79032
0.08,5.802931
0.08,5.811919
0.08,5.82312
0.08,5.83272
0.08,5.84199
0.08,5.849989
0.08,5.85713
0.08,5.86434
0.08,5.87064
0.08,5.8773
0.08,5.88346
0.08,5.88817
0.08,5.89357
0.08,5.895215

File: charging_cycle_212.csv
control/mA,Ewe/V
-0.08,-6.26959
-0.08,-6.30432
-0.08,-6.33407
-0.08,-6.366167
-0.08,-6.39576
-0.08,-6.42509
-0.08,-6.45206
-0.08,-6.4808
-0.08,-6.51089
-0.08,-6.52862
0.08,-5.24141
0.08,-4.22499
0.08,-3.21927
0.08,-2.21907
0.08,-1.21895
0.08,-0.21894
0.08,0.6787367
0.08,1.03911
0.08,1.150767
0.08,1.19788
0.08,1.2503
0.08,1.3194
0.08,1.4113
0.08,1.52666
0.08,1.670733
0.08,1.85366
0.08,2.05111
0.08,2.23174
0.08,2.37219
0.08,2.49268
0.08,2.62212
0.08,2.770716
0.08,2.94492
0.08,3.137982
0.08,3.338446
0.08,3.54481
0.08,3.74392
0.08,3.92617
0.08,4.08878
0.08,4.24332
0.08,4.400046
0.08,4.562669
0.08,4.72043
0.08,4.864996
0.08,4.991858
0.08,5.095611
0.08,5.181636
0.08,5.258043
0.08,5.3267
0.08,5.389733
0.08,5.446771
0.08,5.49555
0.08,5.54329
0.08,5.58529
0.08,5.61943
0.08,5.65111
0.08,5.67756
0.08,5.70177
0.08,5.723165
0.08,5.74139
0.08,5.758774
0.08,5.77394
0.08,5.787703
0.08,5.799153
0.08,5.81283
0.08,5.82268
0.08,5.83239
0.08,5.84249
0.08,5.85129
0.08,5.858767
0.08,5.86827
0.08,5.87543
0.08,5.882563
0.08,5.887811
0.08,5.893
0.08,5.896417

File: charging_cycle_213.csv
control/mA,Ewe/V
-0.08,-6.295943
-0.08,-6.332677
-0.08,-6.3655
-0.08,-6.399295
-0.08,-6.43013
-0.08,-6.45971
-0.08,-6.49202
-0.08,-6.523695
-0.08,-6.5548
-0.08,-6.57329
0.08,-5.33807
0.08,-4.272831
0.08,-3.27207
0.08,-2.271735
0.08,-1.2716
0.08,-0.2715126
0.08,0.601051
0.08,0.982152
0.08,1.12062
0.08,1.178017
0.08,1.23647
0.08,1.30889
0.08,1.4018
0.08,1.50868
0.08,1.65175
0.08,1.83372
0.08,2.03281
0.08,2.21262
0.08,2.358262
0.08,2.48774
0.08,2.61615
0.08,2.75606
0.08,2.91813
0.08,3.1051
0.08,3.30173
0.08,3.50969
0.08,3.71266
0.08,3.90154
0.08,4.07237
0.08,4.230152
0.08,4.38684
0.08,4.54378
0.08,4.703041
0.08,4.85639
0.08,4.98749
0.08,5.096355
0.08,5.186082
0.08,5.263119
0.08,5.330481
0.08,5.39769
0.08,5.456866
0.08,5.508466
0.08,5.555714
0.08,5.59541
0.08,5.63006
0.08,5.66065
0.08,5.689675
0.08,5.715303
0.08,5.73364
0.08,5.7562
0.08,5.77509
0.08,5.791844
0.08,5.805469
0.08,5.819342
0.08,5.83104
0.08,5.842623
0.08,5.85203
0.08,5.86186
0.08,5.870198
0.08,5.87873
0.08,5.885979
0.08,5.893765
0.08,5.90226
0.08,5.9092
0.08,5.91405
0.08,5.918095

File: charging_cycle_214.csv
control/mA,Ewe/V
-0.08,-6.38029
-0.08,-6.416126
-0.08,-6.453299
-0.08,-6.491579
-0.08,-6.526901
-0.08,-6.564074
-0.08,-6.597488
-0.08,-6.632161
-0.08,-6.66754
-0.08,-6.693894
0.08,-5.427607
0.08,-4.35878
0.08,-3.3538
0.08,-2.35373
0.08,-1.35371
0.08,-0.35353
0.08,0.580938
0.08,0.970702
0.08,1.12144
0.08,1.17533
0.08,1.23246
0.08,1.30099
0.08,1.38432
0.08,1.49004
0.08,1.63011
0.08,1.80969
0.08,2.006856
0.08,2.18994
0.08,2.34561
0.08,2.479819
0.08,2.611337
0.08,2.75266
0.08,2.91704
0.08,3.10136
0.08,3.29444
0.08,3.50334
0.08,3.707334
0.08,3.89654
0.08,4.0675
0.08,4.22609
0.08,4.38631
0.08,4.539464
0.08,4.700255
0.08,4.851314
0.08,4.98411
0.08,5.095859
0.08,5.187666
0.08,5.26791
0.08,5.339698
0.08,5.40347
0.08,5.461694
0.08,5.513561
0.08,5.55902
0.08,5.59699
0.08,5.630137
0.08,5.65922
0.08,5.68723
0.08,5.710876
0.08,5.73212
0.08,5.7523
0.08,5.76912
0.08,5.785661
0.08,5.79936
0.08,5.813045
0.08,5.825353
0.08,5.83644
0.08,5.8469
0.08,5.857298
0.08,5.86646
0.08,5.87567
0.08,5.884414
0.08,5.891589
0.08,5.89894
0.08,5.9047
0.08,5.91306
0.08,5.91592

File: charging_cycle_215.csv
control/mA,Ewe/V
-0.08,-6.4775
-0.08,-6.52024
-0.08,-6.56365
-0.08,-6.602659
-0.08,-6.641
-0.08,-6.68204
-0.08,-6.720056
-0.08,-6.75799
-0.08,-6.794708
-0.08,-6.82347
0.08,-5.52604
0.08,-4.5006
0.08,-3.49505
0.08,-2.49496
0.08,-1.49487
0.08,-0.494666
0.08,0.5053511
0.08,0.9191408
0.08,1.10199
0.08,1.16298
0.08,1.215362
0.08,1.28076
0.08,1.359322
0.08,1.45834
0.08,1.58942
0.08,1.76115
0.08,1.9609
0.08,2.158411
0.08,2.32197
0.08,2.46343
0.08,2.59185
0.08,2.73112
0.08,2.89296
0.08,3.07629
0.08,3.27555
0.08,3.48431
0.08,3.69245
0.08,3.88496
0.08,4.059277
0.08,4.22229
0.08,4.38035
0.08,4.53653
0.08,4.69735
0.08,4.836506
0.08,4.977794
0.08,5.096355
0.08,5.196673
0.08,5.28172
0.08,5.3588
0.08,5.42366
0.08,5.484956
0.08,5.53747
0.08,5.582373
0.08,5.61895
0.08,5.65264
0.08,5.68191
0.08,5.708128
0.08,5.734367
0.08,5.75383
0.08,5.774364
0.08,5.79196
0.08,5.80711
0.08,5.82095
0.08,5.83167
0.08,5.846058
0.08,5.859397
0.08,5.87087
0.08,5.88174
0.08,5.88903
0.08,5.89651
0.08,5.904604
0.08,5.91161
0.08,5.9159
0.08,5.924698
0.08,5.93201
0.08,5.93296