Folder: Battery_Analysis1 (part 5)

File: charging_cycle_95.csv
control/mA,Ewe/V
-0.01,-0.645108
-0.01,-0.6499741
-0.01,-0.6541532
-0.01,-0.660565
-0.01,-0.6672058
-0.01,-0.669687
-0.01,-0.674763
-0.01,-0.678713
-0.01,-0.6811934
-0.01,-0.686708
0.01,-0.379474
0.01,0.218213
0.01,0.269603
0.01,0.299086
0.01,0.320878
0.01,0.339503
0.01,0.353529
0.01,0.367478
0.01,0.3800158
0.01,0.392
0.01,0.403678
0.01,0.414441
0.01,0.424631
0.01,0.434421
0.01,0.443409
0.01,0.452587
0.01,0.461518
0.01,0.469991
0.01,0.478235
0.01,0.486058
0.01,0.493463
0.01,0.50079
0.01,0.507908
0.01,0.5151978
0.01,0.5224874
0.01,0.5292427
0.01,0.5358453
0.01,0.5424479
0.01,0.5484017
0.01,0.555004
0.01,0.56176
0.01,0.568076
0.01,0.5740298
0.01,0.5804798
0.01,0.5868725
0.01,0.5935324
0.01,0.599505
0.01,0.605383
0.01,0.612004
0.01,0.618378
0.01,0.624828
0.01,0.631183
0.01,0.6377852
0.01,0.643167
0.01,0.6493684
0.01,0.6562
0.01,0.662364
0.01,0.6694053
0.01,0.6768094
0.01,0.6828586
0.01,0.6892513
0.01,0.694995
0.01,0.7009681
0.01,0.707323
0.01,0.714841
0.01,0.7216347
0.01,0.72818
0.01,0.73568
0.01,0.7432936
0.01,0.7490184
0.01,0.756251

File: charging_cycle_96.csv
control/mA,Ewe/V
-0.01,-0.6459095
-0.01,-0.651692
-0.01,-0.6566912
-0.01,-0.660088
-0.01,-0.665908
-0.01,-0.669553
-0.01,-0.675297
-0.01,-0.678827
-0.01,-0.684705
-0.01,-0.6889983
0.01,-0.380516
0.01,0.218652
0.01,0.270252
0.01,0.29962
0.01,0.321642
0.01,0.338186
0.01,0.353472
0.01,0.3674975
0.01,0.3806646
0.01,0.393755
0.01,0.404976
0.01,0.41591
0.01,0.425872
0.01,0.4360808
0.01,0.445221
0.01,0.454286
0.01,0.46356
0.01,0.471804
0.01,0.480238
0.01,0.4877
0.01,0.495676
0.01,0.5032711
0.01,0.5104271
0.01,0.5175259
0.01,0.5246628
0.01,0.531552
0.01,0.5381734
0.01,0.5449859
0.01,0.5513214
0.01,0.5579622
0.01,0.5634389
0.01,0.570671
0.01,0.5763579
0.01,0.58319
0.01,0.5893342
0.01,0.5954406
0.01,0.602444
0.01,0.6088367
0.01,0.6146569
0.01,0.6215458
0.01,0.6272897
0.01,0.6335679
0.01,0.639922
0.01,0.645666
0.01,0.6520018
0.01,0.65828
0.01,0.664539
0.01,0.6716
0.01,0.678584
0.01,0.685664
0.01,0.691942
0.01,0.6982965
0.01,0.7054525
0.01,0.7120742
0.01,0.719669
0.01,0.7265198
0.01,0.7336759
0.01,0.74024
0.01,0.747396
0.01,0.755239
0.01,0.7622045

File: charging_cycle_97.csv
control/mA,Ewe/V
-0.01,-0.650489
-0.01,-0.6559088
-0.01,-0.661176
-0.01,-0.6647632
-0.01,-0.6698583
-0.01,-0.675335
-0.01,-0.6807354
-0.01,-0.684552
-0.01,-0.689666
-0.01,-0.694971
0.01,-0.385886
0.01,0.21724
0.01,0.2682292
0.01,0.297712
0.01,0.319104
0.01,0.3368125
0.01,0.351792
0.01,0.3659518
0.01,0.378432
0.01,0.3908166
0.01,0.403106
0.01,0.413277
0.01,0.4238297
0.01,0.433963
0.01,0.443523
0.01,0.452626
0.01,0.461194
0.01,0.4687886
0.01,0.4773949
0.01,0.485391
0.01,0.493234
0.01,0.500523
0.01,0.507736
0.01,0.5155604
0.01,0.5224683
0.01,0.5290137
0.01,0.535693
0.01,0.5425242
0.01,0.548822
0.01,0.556016
0.01,0.561359
0.01,0.568267
0.01,0.5744878
0.01,0.580919
0.01,0.5871969
0.01,0.593513
0.01,0.6000587
0.01,0.6071765
0.01,0.6129395
0.01,0.619752
0.01,0.6259539
0.01,0.6322703
0.01,0.638892
0.01,0.645323
0.01,0.6522117
0.01,0.6588144
0.01,0.6652071
0.01,0.6721913
0.01,0.678813
0.01,0.685225
0.01,0.692152
0.01,0.7000712
0.01,0.706292
0.01,0.713582
0.01,0.7205088
0.01,0.728066
0.01,0.7349735
0.01,0.7428737
0.01,0.7496481
0.01,0.7579109
0.01,0.7645517

File: charging_cycle_98.csv
control/mA,Ewe/V
-0.01,-0.6551646
-0.01,-0.6585804
-0.01,-0.66503
-0.01,-0.670164
-0.01,-0.674629
-0.01,-0.680163
-0.01,-0.685697
-0.01,-0.6891127
-0.01,-0.694838
-0.01,-0.7008677
0.01,-0.390936
0.01,0.217068
0.01,0.267943
0.01,0.2975975
0.01,0.318111
0.01,0.335076
0.01,0.350857
0.01,0.365341
0.01,0.3780884
0.01,0.3904922
0.01,0.402591
0.01,0.4131243
0.01,0.4238297
0.01,0.4336764
0.01,0.443504
0.01,0.4525683
0.01,0.461785
0.01,0.470697
0.01,0.478635
0.01,0.4866882
0.01,0.493921
0.01,0.501554
0.01,0.509187
0.01,0.515789
0.01,0.5223538
0.01,0.5295289
0.01,0.536017
0.01,0.5423716
0.01,0.549012
0.01,0.555882
0.01,0.562981
0.01,0.569335
0.01,0.5760144
0.01,0.58214
0.01,0.5888571
0.01,0.594906
0.01,0.6016425
0.01,0.607825
0.01,0.614333
0.01,0.6207634
0.01,0.627232
0.01,0.6336824
0.01,0.640915
0.01,0.646907
0.01,0.6532422
0.01,0.660246
0.01,0.6676115
0.01,0.6737561
0.01,0.6806259
0.01,0.6873812
0.01,0.6945372
0.01,0.7021321
0.01,0.7093263
0.01,0.717017
0.01,0.7246688
0.01,0.7314241
0.01,0.738905
0.01,0.7470338
0.01,0.7539417
0.01,0.7612886
0.01,0.768139

File: charging_cycle_99.csv
control/mA,Ewe/V
-0.01,-0.6609085
-0.01,-0.664172
-0.01,-0.6681027
-0.01,-0.674629
-0.01,-0.679056
-0.01,-0.68459
-0.01,-0.6893417
-0.01,-0.694971
-0.01,-0.7005815
-0.01,-0.7047224
0.01,-0.3924591
0.01,0.218042
0.01,0.268592
0.01,0.298838
0.01,0.320535
0.01,0.33853
0.01,0.3533
0.01,0.367574
0.01,0.3795578
0.01,0.391446
0.01,0.403049
0.01,0.413983
0.01,0.424994
0.01,0.4341153
0.01,0.44421
0.01,0.453351
0.01,0.4625867
0.01,0.470582
0.01,0.4791696
0.01,0.487413
0.01,0.495695
0.01,0.5029467
0.01,0.5098928
0.01,0.517908
0.01,0.52514
0.01,0.532239
0.01,0.5392039
0.01,0.5458828
0.01,0.552447
0.01,0.558745
0.01,0.565767
0.01,0.571606
0.01,0.5781708
0.01,0.5849642
0.01,0.5910325
0.01,0.5983412
0.01,0.6041996
0.01,0.611012
0.01,0.6175575
0.01,0.624236
0.01,0.6301521
0.01,0.637461
0.01,0.644445
0.01,0.6511622
0.01,0.65725
0.01,0.6639858
0.01,0.670073
0.01,0.67658
0.01,0.6840799
0.01,0.6916557
0.01,0.698945
0.01,0.705987
0.01,0.713696
0.01,0.7202798
0.01,0.7279129
0.01,0.735699
0.01,0.7426638
0.01,0.7504305
0.01,0.757987
0.01,0.7651814
0.01,0.771765

File: charging_cycle_100.csv
control/mA,Ewe/V
-0.01,-0.6586758
-0.01,-0.663351
-0.01,-0.669057
-0.01,-0.6738084
-0.01,-0.680526
-0.01,-0.6855634
-0.01,-0.6878342
-0.01,-0.692567
-0.01,-0.6986541
-0.01,-0.7026615
0.01,-0.389814
0.01,0.217774
0.01,0.270023
0.01,0.300536
0.01,0.3215654
0.01,0.338664
0.01,0.354502
0.01,0.368528
0.01,0.381161
0.01,0.393011
0.01,0.405148
0.01,0.416025
0.01,0.42612
0.01,0.436043
0.01,0.445164
0.01,0.4546674
0.01,0.463388
0.01,0.471594
0.01,0.480086
0.01,0.4886728
0.01,0.496535
0.01,0.5042825
0.01,0.5121064
0.01,0.5194151
0.01,0.5259414
0.01,0.5325631
0.01,0.5396046
0.01,0.54657
0.01,0.5533632
0.01,0.5603666
0.01,0.566721
0.01,0.573457
0.01,0.5800218
0.01,0.586815
0.01,0.592922
0.01,0.6000587
0.01,0.606585
0.01,0.6132066
0.01,0.6202482
0.01,0.6269653
0.01,0.6340641
0.01,0.640075
0.01,0.6468495
0.01,0.653948
0.01,0.6593868
0.01,0.6660276
0.01,0.6735462
0.01,0.680359
0.01,0.6877438
0.01,0.6949189
0.01,0.702457
0.01,0.709498
0.01,0.716673
0.01,0.724402
0.01,0.7312142
0.01,0.739477
0.01,0.747091
0.01,0.754934
0.01,0.7620328
0.01,0.77062
0.01,0.777986

File: charging_cycle_101.csv
control/mA,Ewe/V
-0.01,-0.664687
-0.01,-0.6708506
-0.01,-0.675221
-0.01,-0.68169
-0.01,-0.6871854
-0.01,-0.6931965
-0.01,-0.697986
-0.01,-0.702375
-0.01,-0.7066498
-0.01,-0.7106571
0.01,-0.396787
0.01,0.217813
0.01,0.269412
0.01,0.299391
0.01,0.32063
0.01,0.33832
0.01,0.3519451
0.01,0.366677
0.01,0.378966
0.01,0.391561
0.01,0.40343
0.01,0.4143456
0.01,0.4251655
0.01,0.434917
0.01,0.44442
0.01,0.4536369
0.01,0.462415
0.01,0.4717846
0.01,0.48041
0.01,0.488196
0.01,0.4958288
0.01,0.503309
0.01,0.511362
0.01,0.518976
0.01,0.525731
0.01,0.5328684
0.01,0.5398336
0.01,0.5464744
0.01,0.5541838
0.01,0.5611299
0.01,0.5675608
0.01,0.574125
0.01,0.5808424
0.01,0.586911
0.01,0.594143
0.01,0.600822
0.01,0.6075582
0.01,0.6137982
0.01,0.620439
0.01,0.627442
0.01,0.633816
0.01,0.6407621
0.01,0.647536
0.01,0.6538147
0.01,0.6608944
0.01,0.6678977
0.01,0.6750538
0.01,0.682572
0.01,0.689461
0.01,0.695644
0.01,0.7033916
0.01,0.7114636
0.01,0.7193638
0.01,0.726157
0.01,0.734344
0.01,0.7424157
0.01,0.7502397
0.01,0.756995
0.01,0.764972
0.01,0.773024
0.01,0.780887

File: charging_cycle_102.csv
control/mA,Ewe/V
-0.01,-0.6675111
-0.01,-0.675278
-0.01,-0.680926
-0.01,-0.683941
-0.01,-0.689132
-0.01,-0.693406
-0.01,-0.700085
-0.01,-0.705772
-0.01,-0.709474
-0.01,-0.7159621
0.01,-0.400715
0.01,0.219606
0.01,0.27134
0.01,0.301204
0.01,0.3224623
0.01,0.339198
0.01,0.354636
0.01,0.368299
0.01,0.381695
0.01,0.394271
0.01,0.4049378
0.01,0.4166737
0.01,0.427112
0.01,0.43694
0.01,0.4473587
0.01,0.45669
0.01,0.4652583
0.01,0.4735593
0.01,0.48249
0.01,0.4905429
0.01,0.498729
0.01,0.506401
0.01,0.513843
0.01,0.5209417
0.01,0.528613
0.01,0.53575
0.01,0.542658
0.01,0.549585
0.01,0.55655
0.01,0.563286
0.01,0.570671
0.01,0.577522
0.01,0.5839719
0.01,0.590784
0.01,0.5973489
0.01,0.6041996
0.01,0.6119472
0.01,0.618378
0.01,0.625057
0.01,0.63206
0.01,0.6391019
0.01,0.646124
0.01,0.653128
0.01,0.66036
0.01,0.6671535
0.01,0.6740614
0.01,0.6810457
0.01,0.6885834
0.01,0.695453
0.01,0.703086
0.01,0.7102041
0.01,0.7173792
0.01,0.7237338
0.01,0.7317104
0.01,0.739592
0.01,0.7466521
0.01,0.754972
0.01,0.7629869
0.01,0.770849
0.01,0.7782531
0.01,0.786878

File: charging_cycle_103.csv
control/mA,Ewe/V
-0.02,-1.33136
-0.02,-1.35306
-0.02,-1.37483
-0.02,-1.39916
-0.02,-1.42632
-0.02,-1.45175
-0.02,-1.47614
-0.02,-1.50295
-0.02,-1.53055
-0.02,-1.5382
0.02,-0.857836
0.02,0.142169
0.02,0.4889972
0.02,0.533479
0.02,0.5611108
0.02,0.5839147
0.02,0.6052873
0.02,0.626221
0.02,0.648109
0.02,0.668661
0.02,0.688488
0.02,0.7075516
0.02,0.7261764
0.02,0.7441523
0.02,0.7612886
0.02,0.778081
0.02,0.7952749
0.02,0.812678
0.02,0.830559
0.02,0.8485157
0.02,0.867732
0.02,0.8872345
0.02,0.9082637
0.02,0.929789
0.02,0.9523257
0.02,0.975416
0.02,0.999975
0.02,1.023657
0.02,1.04824
0.02,1.07321
0.02,1.0976
0.02,1.12165
0.02,1.14628
0.02,1.17319
0.02,1.19826
0.02,1.2254
0.02,1.25162
0.02,1.28005
0.02,1.30933
0.02,1.33951
0.02,1.3698
0.02,1.40071
0.02,1.43327
0.02,1.46393
0.02,1.495439
0.02,1.52801
0.02,1.56103
0.02,1.59421
0.02,1.62858
0.02,1.66411
0.02,1.6992
0.02,1.735347
0.02,1.77336
0.02,1.81095
0.02,1.84923
0.02,1.88681
0.02,1.92719
0.02,1.964626
0.02,2.00418
0.02,2.0462
0.02,2.08815
0.02,2.12866

File: charging_cycle_104.csv
control/mA,Ewe/V
-0.02,-1.35838
-0.02,-1.38601
-0.02,-1.41481
-0.02,-1.44233
-0.02,-1.46996
-0.02,-1.49904
-0.02,-1.52824
-0.02,-1.55616
-0.02,-1.58512
-0.02,-1.61358
0.02,-0.936708
0.02,0.06329984
0.02,0.461919
0.02,0.513919
0.02,0.5471804
0.02,0.573381
0.02,0.596223
0.02,0.6179773
0.02,0.6407049
0.02,0.6639667
0.02,0.6874766
0.02,0.7101087
0.02,0.732035
0.02,0.752282
0.02,0.7708872
0.02,0.789016
0.02,0.8059612
0.02,0.821609
0.02,0.8382492
0.02,0.8541451
0.02,0.871014
0.02,0.888837
0.02,0.9067371
0.02,0.925877
0.02,0.9457612
0.02,0.964939
0.02,0.9875715
0.02,1.00898
0.02,1.0319
0.02,1.05667
0.02,1.08169
0.02,1.107621
0.02,1.13584
0.02,1.1646
0.02,1.19523
0.02,1.2246
0.02,1.25788
0.02,1.29101
0.02,1.3266
0.02,1.36142
0.02,1.39722
0.02,1.43594
0.02,1.473
0.02,1.51002
0.02,1.54933
0.02,1.5895
0.02,1.62825
0.02,1.67024
0.02,1.71176
0.02,1.74926
0.02,1.79559
0.02,1.83933
0.02,1.88087
0.02,1.92331
0.02,1.96613
0.02,2.00817
0.02,2.048342
0.02,2.09353
0.02,2.13622
0.02,2.17841
0.02,2.21789
0.02,2.25886

File: charging_cycle_105.csv
control/mA,Ewe/V
-0.02,-1.36434
-0.02,-1.39388
-0.02,-1.4225
-0.02,-1.45189
-0.02,-1.48303
-0.02,-1.512
-0.02,-1.54306
-0.02,-1.57449
-0.02,-1.60401
-0.02,-1.63344
0.02,-0.9601136
0.02,0.0400571
0.02,0.4544384
0.02,0.508939
0.02,0.54365
0.02,0.5707667
0.02,0.594544
0.02,0.6170423
0.02,0.639732
0.02,0.6637377
0.02,0.68824
0.02,0.7124941
0.02,0.736252
0.02,0.7585979
0.02,0.7789782
0.02,0.7978511
0.02,0.8158079
0.02,0.832868
0.02,0.849298
0.02,0.8660336
0.02,0.883189
0.02,0.900821
0.02,0.9203812
0.02,0.9388342
0.02,0.959997
0.02,0.98198
0.02,1.00513
0.02,1.02835
0.02,1.05358
0.02,1.07865
0.02,1.106724
0.02,1.13523
0.02,1.16573
0.02,1.19742
0.02,1.23074
0.02,1.265206
0.02,1.30217
0.02,1.33999
0.02,1.38077
0.02,1.41909
0.02,1.45975
0.02,1.50195
0.02,1.54433
0.02,1.58852
0.02,1.63159
0.02,1.67646
0.02,1.72277
0.02,1.76857
0.02,1.81517
0.02,1.860835
0.02,1.9064
0.02,1.95178
0.02,1.99697
0.02,2.04178
0.02,2.08517
0.02,2.129768
0.02,2.171063
0.02,2.2114
0.02,2.252162
0.02,2.29258
0.02,2.331298
0.02,2.36788

File: charging_cycle_106.csv
control/mA,Ewe/V
-0.02,-1.40206
-0.02,-1.431526
-0.02,-1.46328
-0.02,-1.49562
-0.02,-1.52694
-0.02,-1.557701
-0.02,-1.59028
-0.02,-1.62064
-0.02,-1.6526
-0.02,-1.658534
0.02,-0.9858432
0.02,0.0142191
0.02,0.448752
0.02,0.5033283
0.02,0.5389749
0.02,0.566702
0.02,0.589983
0.02,0.6125006
0.02,0.635381
0.02,0.659349
0.02,0.684442
0.02,0.710414
0.02,0.7358513
0.02,0.759781
0.02,0.780753
0.02,0.8009997
0.02,0.8195099
0.02,0.83741
0.02,0.8556145
0.02,0.8731515
0.02,0.8919098
0.02,0.910649
0.02,0.9309721
0.02,0.95202
0.02,0.97345
0.02,0.996559
0.02,1.02112
0.02,1.047434
0.02,1.07352
0.02,1.10232
0.02,1.13222
0.02,1.16411
0.02,1.19844
0.02,1.23317
0.02,1.26961
0.02,1.30818
0.02,1.34761
0.02,1.38943
0.02,1.43275
0.02,1.47758
0.02,1.5217
0.02,1.56685
0.02,1.61392
0.02,1.66333
0.02,1.71247
0.02,1.76237
0.02,1.81214
0.02,1.86167
0.02,1.91146
0.02,1.96052
0.02,2.00972
0.02,2.056013
0.02,2.10156
0.02,2.144557
0.02,2.18671
0.02,2.22798
0.02,2.26766
0.02,2.30252
0.02,2.34431
0.02,2.38059
0.02,2.418926
0.02,2.4523

File: charging_cycle_107.csv
control/mA,Ewe/V
-0.02,-1.41147
-0.02,-1.44179
-0.02,-1.47452
-0.02,-1.50748
-0.02,-1.53881
-0.02,-1.57039
-0.02,-1.60405
-0.02,-1.63542
-0.02,-1.66674
-0.02,-1.6754
0.02,-1.0038
0.02,-0.00374386
0.02,0.446061
0.02,0.500256
0.02,0.536704
0.02,0.564679
0.02,0.588571
0.02,0.6112793
0.02,0.6337015
0.02,0.657154
0.02,0.6819235
0.02,0.707876
0.02,0.734134
0.02,0.7591322
0.02,0.7813063
0.02,0.8022783
0.02,0.8217235
0.02,0.8406536
0.02,0.8595837
0.02,0.8778649
0.02,0.8969476
0.02,0.9172326
0.02,0.9384144
0.02,0.9595962
0.02,0.983411
0.02,1.00688
0.02,1.03364
0.02,1.06054
0.02,1.089626
0.02,1.120578
0.02,1.15235
0.02,1.18742
0.02,1.22422
0.02,1.26259
0.02,1.30293
0.02,1.34566
0.02,1.38903
0.02,1.434069
0.02,1.48153
0.02,1.52889
0.02,1.57818
0.02,1.62745
0.02,1.67892
0.02,1.73113
0.02,1.78397
0.02,1.83645
0.02,1.88877
0.02,1.94096
0.02,1.99205
0.02,2.04224
0.02,2.08971
0.02,2.13385
0.02,2.17795
0.02,2.21945
0.02,2.26033
0.02,2.29996
0.02,2.33813
0.02,2.37429
0.02,2.410625
0.02,2.4465
0.02,2.478712
0.02,2.51356

File: charging_cycle_108.csv
control/mA,Ewe/V
-0.02,-1.4324
-0.02,-1.46345
-0.02,-1.49683
-0.02,-1.5303
-0.02,-1.56285
-0.02,-1.5948
-0.02,-1.62907
-0.02,-1.66142
-0.02,-1.69311
-0.02,-1.70179
0.02,-1.028
0.02,-0.0279407
0.02,0.441901
0.02,0.4958288
0.02,0.5325631
0.02,0.5606719
0.02,0.584907
0.02,0.607291
0.02,0.629904
0.02,0.65307
0.02,0.6777635
0.02,0.703487
0.02,0.7296685
0.02,0.755678
0.02,0.779722
0.02,0.801496
0.02,0.8211892
0.02,0.8409971
0.02,0.8598508
0.02,0.8795442
0.02,0.9002871
0.02,0.9204957
0.02,0.942479
0.02,0.965932
0.02,0.990682
0.02,1.01694
0.02,1.04381
0.02,1.07308
0.02,1.10316
0.02,1.135
0.02,1.169697
0.02,1.20586
0.02,1.24492
0.02,1.2858
0.02,1.32747
0.02,1.37289
0.02,1.41995
0.02,1.46933
0.02,1.51929
0.02,1.57118
0.02,1.62108
0.02,1.67646
0.02,1.73117
0.02,1.78574
0.02,1.84042
0.02,1.88965
0.02,1.94694
0.02,2.00018
0.02,2.051796
0.02,2.09946
0.02,2.1449
0.02,2.18913
0.02,2.23077
0.02,2.27161
0.02,2.31071
0.02,2.35009
0.02,2.387096
0.02,2.42446
0.02,2.46215
0.02,2.49814
0.02,2.53306
0.02,2.56745

File: charging_cycle_109.csv
control/mA,Ewe/V
-0.02,-1.44733
-0.02,-1.48032
-0.02,-1.51093
-0.02,-1.54623
-0.02,-1.57965
-0.02,-1.61365
-0.02,-1.6472
-0.02,-1.67916
-0.02,-1.71218
-0.02,-1.72254
0.02,-1.04836
0.02,-0.04832109
0.02,0.44026
0.02,0.493367
0.02,0.5300823
0.02,0.5585346
0.02,0.583361
0.02,0.6058216
0.02,0.6279957
0.02,0.6516774
0.02,0.6764468
0.02,0.702437
0.02,0.7290388
0.02,0.755239
0.02,0.779894
0.02,0.80203
0.02,0.822296
0.02,0.842581
0.02,0.862332
0.02,0.882597
0.02,0.902768
0.02,0.923358
0.02,0.946315
0.02,0.970397
0.02,0.995682
0.02,1.021844
0.02,1.05146
0.02,1.08161
0.02,1.11464
0.02,1.14874
0.02,1.18273
0.02,1.22256
0.02,1.26341
0.02,1.30709
0.02,1.35178
0.02,1.3992
0.02,1.44892
0.02,1.499332
0.02,1.5537
0.02,1.60852
0.02,1.66486
0.02,1.72292
0.02,1.78004
0.02,1.83773
0.02,1.89639
0.02,1.95526
0.02,2.00989
0.02,2.06168
0.02,2.11191
0.02,2.15843
0.02,2.20154
0.02,2.24518
0.02,2.28718
0.02,2.326451
0.02,2.36492
0.02,2.40238
0.02,2.43984
0.02,2.47701
0.02,2.51335
0.02,2.5492
0.02,2.585003
0.02,2.61748

File: charging_cycle_110.csv
control/mA,Ewe/V
-0.02,-1.4704
-0.02,-1.5023
-0.02,-1.53598
-0.02,-1.57014
-0.02,-1.60344
-0.02,-1.6359
-0.02,-1.67016
-0.02,-1.7022
-0.02,-1.73569
-0.02,-1.7488
0.02,-1.07369
0.02,-0.073682
0.02,0.4389432
0.02,0.492566
0.02,0.530006
0.02,0.5588209
0.02,0.58319
0.02,0.605459
0.02,0.6278431
0.02,0.6514484
0.02,0.6761987
0.02,0.701999
0.02,0.729363
0.02,0.756136
0.02,0.781058
0.02,0.803709
0.02,0.8248722
0.02,0.843974
0.02,0.8638773
0.02,0.8847156
0.02,0.9043517
0.02,0.926736
0.02,0.9501693
0.02,0.9753776
0.02,1.00154
0.02,1.03011
0.02,1.059895
0.02,1.09224
0.02,1.1256
0.02,1.16212
0.02,1.19803
0.02,1.2399
0.02,1.28291
0.02,1.32868
0.02,1.37678
0.02,1.42722
0.02,1.48015
0.02,1.534654
0.02,1.59162
0.02,1.64797
0.02,1.70768
0.02,1.76836
0.02,1.82763
0.02,1.88906
0.02,1.94757
0.02,2.00497
0.02,2.05891
0.02,2.11118
0.02,2.15973
0.02,2.204398
0.02,2.24884
0.02,2.29126
0.02,2.33122
0.02,2.37082
0.02,2.41022
0.02,2.44608
0.02,2.484914
0.02,2.52188
0.02,2.5592
0.02,2.594964
0.02,2.63103
0.02,2.664406

File: charging_cycle_111.csv
control/mA,Ewe/V
-0.02,-1.49003
-0.02,-1.52326
-0.02,-1.55972
-0.02,-1.593233
-0.02,-1.62842
-0.02,-1.66168
-0.02,-1.69515
-0.02,-1.72946
-0.02,-1.76168
-0.02,-1.77574
0.02,-1.09958
0.02,-0.0994437
0.02,0.438161
0.02,0.4915161
0.02,0.5277733
0.02,0.557237
0.02,0.582274
0.02,0.6048293
0.02,0.6262974
0.02,0.6501126
0.02,0.6745767
0.02,0.700491
0.02,0.727474
0.02,0.7548
0.02,0.779646
0.02,0.803061
0.02,0.823727
0.02,0.8445656
0.02,0.8638391
0.02,0.8842004
0.02,0.906031
0.02,0.9280525
0.02,0.9525738
0.02,0.978202
0.02,1.00583
0.02,1.0349
0.02,1.06556
0.02,1.09758
0.02,1.132333
0.02,1.168781
0.02,1.20761
0.02,1.246772
0.02,1.29099
0.02,1.33822
0.02,1.38823
0.02,1.44206
0.02,1.49731
0.02,1.55479
0.02,1.61408
0.02,1.67524
0.02,1.73724
0.02,1.79712
0.02,1.8615
0.02,1.92154
0.02,1.98342
0.02,2.03974
0.02,2.09435
0.02,2.14637
0.02,2.19453
0.02,2.239205
0.02,2.28184
0.02,2.324829
0.02,2.36538
0.02,2.406236
0.02,2.44383
0.02,2.482147
0.02,2.52111
0.02,2.558993
0.02,2.59693
0.02,2.63405
0.02,2.67112
0.02,2.70601

File: charging_cycle_112.csv
control/mA,Ewe/V
-0.02,-1.51238
-0.02,-1.54923
-0.02,-1.58268
-0.02,-1.61796
-0.02,-1.65245
-0.02,-1.68798
-0.02,-1.72172
-0.02,-1.75637
-0.02,-1.78814
-0.02,-1.80356
0.02,-1.12716
0.02,-0.127075
0.02,0.436062
0.02,0.488291
0.02,0.524148
0.02,0.5525999
0.02,0.5769876
0.02,0.5999251
0.02,0.6226335
0.02,0.646105
0.02,0.670531
0.02,0.6967508
0.02,0.7239246
0.02,0.750888
0.02,0.776459
0.02,0.7999883
0.02,0.8212083
0.02,0.8414742
0.02,0.8620835
0.02,0.8830745
0.02,0.904867
0.02,0.9269266
0.02,0.950952
0.02,0.9761409
0.02,1.00358
0.02,1.03257
0.02,1.06526
0.02,1.09798
0.02,1.13313
0.02,1.17164
0.02,1.211927
0.02,1.25267
0.02,1.29818
0.02,1.34642
0.02,1.39724
0.02,1.44955
0.02,1.50574
0.02,1.56559
0.02,1.623904
0.02,1.68842
0.02,1.75208
0.02,1.81757
0.02,1.88213
0.02,1.94615
0.02,2.007047
0.02,2.06588
0.02,2.120303
0.02,2.17171
0.02,2.22045
0.02,2.2659
0.02,2.30991
0.02,2.353415
0.02,2.39536
0.02,2.43604
0.02,2.47598
0.02,2.51672
0.02,2.555501
0.02,2.59464
0.02,2.634427
0.02,2.67236
0.02,2.706121
0.02,2.74217

File: charging_cycle_113.csv
control/mA,Ewe/V
-0.02,-1.53808
-0.02,-1.57274
-0.02,-1.60838
-0.02,-1.64403
-0.02,-1.67914
-0.02,-1.713435
-0.02,-1.74794
-0.02,-1.78169
-0.02,-1.81654
-0.02,-1.83142
0.02,-1.14968
0.02,-0.149631
0.02,0.4351839
0.02,0.487432
0.02,0.5227927
0.02,0.5515504
0.02,0.5762816
0.02,0.5992381
0.02,0.622481
0.02,0.646105
0.02,0.671237
0.02,0.697438
0.02,0.7243635
0.02,0.7513846
0.02,0.777528
0.02,0.8016485
0.02,0.8232502
0.02,0.844203
0.02,0.865003
0.02,0.8862995
0.02,0.907539
0.02,0.930629
0.02,0.9546538
0.02,0.97845
0.02,1.00803
0.02,1.0374
0.02,1.06814
0.02,1.10102
0.02,1.136932
0.02,1.17485
0.02,1.2159
0.02,1.2591
0.02,1.30539
0.02,1.35711
0.02,1.40875
0.02,1.46258
0.02,1.52261
0.02,1.57996
0.02,1.64484
0.02,1.71197
0.02,1.7783
0.02,1.8458
0.02,1.91356
0.02,1.97806
0.02,2.04069
0.02,2.100743
0.02,2.15505
0.02,2.20457
0.02,2.25296
0.02,2.29979
0.02,2.329886
0.02,2.37633
0.02,2.42047
0.02,2.462759
0.02,2.50423
0.02,2.54478
0.02,2.585041
0.02,2.62428
0.02,2.66328
0.02,2.70299
0.02,2.74007
0.02,2.77699

File: charging_cycle_114.csv
control/mA,Ewe/V
-0.02,-1.56236
-0.02,-1.59913
-0.02,-1.63396
-0.02,-1.67266
-0.02,-1.70597
-0.02,-1.74225
-0.02,-1.77564
-0.02,-1.81039
-0.02,-1.84243
-0.02,-1.85974
0.02,-1.17589
0.02,-0.175736
0.02,0.435146
0.02,0.488577
0.02,0.5232316
0.02,0.5518557
0.02,0.576778
0.02,0.5996961
0.02,0.6229388
0.02,0.647212
0.02,0.6721913
0.02,0.698449
0.02,0.726386
0.02,0.7537318
0.02,0.7797988
0.02,0.803061
0.02,0.8254447
0.02,0.8467219
0.02,0.8670259
0.02,0.888265
0.02,0.909752
0.02,0.932785
0.02,0.9567529
0.02,0.983736
0.02,1.011921
0.02,1.04175
0.02,1.07356
0.02,1.107182
0.02,1.144088
0.02,1.18254
0.02,1.22284
0.02,1.26755
0.02,1.31494
0.02,1.36497
0.02,1.41768
0.02,1.47407
0.02,1.53359
0.02,1.59553
0.02,1.66064
0.02,1.72638
0.02,1.78158
0.02,1.8508
0.02,1.91825
0.02,1.98295
0.02,2.04758
0.02,2.10731
0.02,2.163239
0.02,2.2093
0.02,2.26014
0.02,2.308
0.02,2.35303
0.02,2.39832
0.02,2.44217
0.02,2.482624
0.02,2.525293
0.02,2.56567
0.02,2.60737
0.02,2.64813
0.02,2.68822
0.02,2.72713
0.02,2.7681
0.02,2.8026

File: charging_cycle_115.csv
control/mA,Ewe/V
-0.02,-1.59321
-0.02,-1.62953
-0.02,-1.66678
-0.02,-1.70168
-0.02,-1.73817
-0.02,-1.77303
-0.02,-1.80843
-0.02,-1.8445
-0.02,-1.87764
-0.02,-1.893595
0.02,-1.20779
0.02,-0.207643
0.02,0.432207
0.02,0.486936
0.02,0.5215714
0.02,0.5494322
0.02,0.573476
0.02,0.5970245
0.02,0.619981
0.02,0.643796
0.02,0.668451
0.02,0.6948425
0.02,0.7226842
0.02,0.750182
0.02,0.776669
0.02,0.8000647
0.02,0.8223151
0.02,0.8436878
0.02,0.864774
0.02,0.8850782
0.02,0.9068134
0.02,0.9293501
0.02,0.9537
0.02,0.979786
0.02,1.00799
0.02,1.03879
0.02,1.07022
0.02,1.10443
0.02,1.14065
0.02,1.17989
0.02,1.22128
0.02,1.2662
0.02,1.31165
0.02,1.36167
0.02,1.41476
0.02,1.47054
0.02,1.52872
0.02,1.583773
0.02,1.64947
0.02,1.71449
0.02,1.78477
0.02,1.856217
0.02,1.92608
0.02,1.99396
0.02,2.0568
0.02,2.11427
0.02,2.17377
0.02,2.223271
0.02,2.26815
0.02,2.318322
0.02,2.369979
0.02,2.41146
0.02,2.455393
0.02,2.4993
0.02,2.5443
0.02,2.58647
0.02,2.62889
0.02,2.66683
0.02,2.70765
0.02,2.75024
0.02,2.79039
0.02,2.825388

File: charging_cycle_116.csv
control/mA,Ewe/V
-0.02,-1.62802
-0.02,-1.66424
-0.02,-1.70149
-0.02,-1.73908
-0.02,-1.774557
-0.02,-1.81104
-0.02,-1.847224
-0.02,-1.88243
-0.02,-1.91674
-0.02,-1.93428
0.02,-1.24643
0.02,-0.2464
0.02,0.43028
0.02,0.486478
0.02,0.5201784
0.02,0.547734
0.02,0.5719498
0.02,0.59525
0.02,0.6189124
0.02,0.6427467
0.02,0.667631
0.02,0.694003
0.02,0.721711
0.02,0.748847
0.02,0.7752762
0.02,0.7993204
0.02,0.821704
0.02,0.8432107
0.02,0.86382
0.02,0.884926
0.02,0.906527
0.02,0.9298081
0.02,0.9542912
0.02,0.9797094
0.02,1.00831
0.02,1.0395
0.02,1.07176
0.02,1.106018
0.02,1.14193
0.02,1.180765
0.02,1.2224
0.02,1.26698
0.02,1.31453
0.02,1.36384
0.02,1.41756
0.02,1.47422
0.02,1.5337
0.02,1.596711
0.02,1.662661
0.02,1.729813
0.02,1.7991
0.02,1.86811
0.02,1.9407
0.02,2.00718
0.02,2.073016
0.02,2.13129
0.02,2.186539
0.02,2.24214
0.02,2.28437
0.02,2.33386
0.02,2.38587
0.02,2.432055
0.02,2.47053
0.02,2.52064
0.02,2.56207
0.02,2.606719
0.02,2.64765
0.02,2.68891
0.02,2.72959
0.02,2.76927
0.02,2.7957
0.02,2.83283

File: charging_cycle_117.csv
control/mA,Ewe/V
-0.02,-1.66094
-0.02,-1.69968
-0.02,-1.736964
-0.02,-1.7737
-0.02,-1.81005
-0.02,-1.8472
-0.02,-1.88331
-0.02,-1.92071
-0.02,-1.9558
-0.02,-1.971777
0.02,-1.28169
0.02,-0.281569
0.02,0.426062
0.02,0.4856959
0.02,0.518938
0.02,0.546035
0.02,0.5707667
0.02,0.594029
0.02,0.6164889
0.02,0.6408194
0.02,0.665818
0.02,0.6922854
0.02,0.719803
0.02,0.7475681
0.02,0.774112
0.02,0.797431
0.02,0.8200443
0.02,0.8411688
0.02,0.86258
0.02,0.8840859
0.02,0.9053822
0.02,0.9285104
0.02,0.9529745
0.02,0.979881
0.02,1.00778
0.02,1.03898
0.02,1.06988
0.02,1.10459
0.02,1.14165
0.02,1.18122
0.02,1.22153
0.02,1.26668
0.02,1.31356
0.02,1.36419
0.02,1.41646
0.02,1.47338
0.02,1.53334
0.02,1.596921
0.02,1.66365
0.02,1.73289
0.02,1.80149
0.02,1.87291
0.02,1.94423
0.02,2.013764
0.02,2.07855
0.02,2.140416
0.02,2.19959
0.02,2.25485
0.02,2.30571
0.02,2.3558
0.02,2.40204
0.02,2.449172
0.02,2.476174
0.02,2.528041
0.02,2.57479
0.02,2.61926
0.02,2.66191
0.02,2.7069
0.02,2.74898
0.02,2.78497
0.02,2.82619
0.02,2.865

File: charging_cycle_118.csv
control/mA,Ewe/V
-0.02,-1.70296
-0.02,-1.74282
-0.02,-1.782171
-0.02,-1.81973
-0.02,-1.85886
-0.02,-1.8972
-0.02,-1.93541
-0.02,-1.96804
-0.02,-2.00422
-0.02,-2.02454
0.02,-1.32979
0.02,-0.329658
0.02,0.4218451
0.02,0.4845891
0.02,0.518041
0.02,0.5451386
0.02,0.5696599
0.02,0.5933988
0.02,0.6170995
0.02,0.6423841
0.02,0.6682603
0.02,0.6939266
0.02,0.721902
0.02,0.7490565
0.02,0.775524
0.02,0.7996067
0.02,0.8212656
0.02,0.84405
0.02,0.864965
0.02,0.8847919
0.02,0.907119
0.02,0.9299798
0.02,0.956104
0.02,0.9822474
0.02,1.01038
0.02,1.04034
0.02,1.07314
0.02,1.10745
0.02,1.143382
0.02,1.18065
0.02,1.22154
0.02,1.26528
0.02,1.313657
0.02,1.36062
0.02,1.41184
0.02,1.47309
0.02,1.52916
0.02,1.5928
0.02,1.658
0.02,1.72823
0.02,1.797862
0.02,1.87047
0.02,1.94129
0.02,2.01163
0.02,2.076756
0.02,2.141561
0.02,2.200257
0.02,2.25707
0.02,2.30994
0.02,2.36049
0.02,2.408545
0.02,2.456996
0.02,2.5019
0.02,2.5468
0.02,2.59262
0.02,2.635763
0.02,2.673871
0.02,2.719078
0.02,2.76142
0.02,2.80152
0.02,2.842257
0.02,2.87372